Acc X,Acc Y,Acc Z,Class
-0.3859925828568069,0.3967100608263277,0.1281917635568094,0.0
-0.2787643276996177,0.2498198834337461,-0.4649571890022746,0.0
-0.0146993430165377,0.6917485755891569,-0.1332226339293579,0.0
-0.51140034104352,0.5942411773199925,-0.1880912770687947,0.0
-0.2667473680699318,0.7357841748074903,-0.4176566345717265,0.0
0.4499564293312844,0.1655231649300812,-0.5535668943021702,0.0
-0.3980095424864928,1.0559858891236522,-0.4450909561414444,0.0
0.1649387970887539,2.216953008515557,0.3117179147473399,0.0
-0.0575290196454153,0.0878317863091648,-0.8518757242441657,0.0
0.1073190163002638,-1.2904824692246493,-1.430519173444549,0.0
-0.5557706535223571,1.2767929652041432,-0.7311016419314977,0.0
-0.4140321553260723,1.2431371858015632,-0.5384307168843946,0.0
-0.1357933208233646,0.2554816033332471,-0.7109200720411302,0.0
-0.8786879276739007,0.4910720591513272,0.9865391579565054,0.0
-0.276915564679666,0.2903955427134961,-0.425855397339688,0.0
-0.0578371468154078,0.5954993372976585,-0.6185263223867913,0.0
-0.3360759813181155,1.0069176499946535,0.8995061378042959,0.0
-0.3764406405870577,0.4228168803629109,0.1020187901052387,0.0
-0.4115671379661368,0.3611670414572457,-0.3435524326305325,0.0
-0.4750413349844776,0.4828940192964929,-0.177054481035,0.0
3.342038046875497,0.6621818161139916,-0.3435524326305325,0.0
-0.1835530321721131,0.4114934405639117,-0.5176184729349533,0.0
-1.689986766262638,-0.1930524287049141,-1.0357172124642338,0.0
-0.115765054773889,0.6455111964099086,-0.419863993778485,0.0
0.3498150990839089,1.0292499895982363,0.0234998697505281,0.0
0.1168709585700143,0.8225972132664898,0.2221621983588331,0.0
0.090988276290692,0.3743777212227452,-0.0805613499966806,0.0
-0.3779812764370173,0.7112500552429903,0.0830985683330198,0.0
-0.5616250697522076,-0.0442750113458328,-0.4223866900147809,0.0
-0.6697777064193677,-0.8466665371027384,-0.3514358583689574,0.0
-0.4035558315463471,1.2547751655949817,0.033590654695712,0.0
-0.5243416821831856,0.0409653271410822,-0.9083210525312876,0.0
-0.1780067431122575,0.6760215758683241,-0.3375610290693297,0.0
0.2160879073074138,0.7351550948186573,-0.3958983795336728,0.0
-0.0411982796358435,0.6731907159185749,0.8559896277281911,0.0
-0.4325197855255884,0.4772322993969933,0.0976040716917218,0.0
-0.5012321444337936,0.4489236998994941,-0.0774079797013097,0.0
-0.1592109857427502,-0.0533966711839159,-0.3315696255081268,0.0
-0.1746173442423461,-0.958642775115071,-1.8603235447034716,0.0
-0.5012321444337936,0.8889651520884045,-0.2776469934573009,0.0
-0.398317669656484,1.173309307041062,0.0427354285522846,0.0
-0.2168307665312403,-0.1178773700393319,0.2309916351858696,0.0
-0.126857632893599,0.5599563179285764,-0.7515985488514014,0.0
-1.040762819089642,-0.2502987076887468,-0.5589276238042996,0.0
-0.3875332187067664,0.6297841966890746,-0.1808385253894439,0.0
-0.101283077784269,1.246597125740157,-0.791331014573063,0.0
-0.1860180495320485,0.3177605222277452,0.3911828461906617,0.0
-0.1206950894937597,-0.3298773262761631,-1.9561860016827173,0.0
-0.2738342929797469,1.404810742931726,-0.179577177271296,0.0
-0.4094102477761938,0.3926210408989113,0.6138107890437801,0.0
-0.5317367342629853,0.4910720591513272,-0.1511968446129665,0.0
-0.0837198290947288,0.1240038856670811,-0.86827324978009,0.0
-0.3394653801880268,0.3054934624454959,-0.3574272619301599,0.0
-0.4796632425343509,0.2432145435509964,-0.2666101974235061,0.0
-0.5554625263523723,0.3957664408430776,-0.2300311019972149,0.0
-0.3822950568169046,-0.2185301682526637,-0.4564430892047755,0.0
-0.1277820144035736,0.0113985676659169,-0.2934138449341507,0.0
-0.3946201436165815,0.9446387311001544,-0.3763474837023802,0.0
-0.5542300176723949,0.0840573063761655,-0.591092000817072,0.0
-0.2005000265216685,0.2372382836570797,-0.5384307168843946,0.0
0.0546292702316445,0.3061225424343289,-0.4718946036520888,0.0
0.3895635040128677,-1.125034432161485,-0.6715029433490062,0.0
-1.376929561550836,-0.1682037691459978,-0.2461132905036015,0.0
-1.6955330553224908,0.1919445244610802,-0.0695245539628856,0.0
-0.1203869623237687,0.4961046990619937,0.1795916993713395,0.0
-0.1530484423429124,-0.8067199578118228,-0.8357935357377788,0.0
0.1162547042300295,0.6716180159464918,0.0506188542907086,0.0
-0.1105268928840258,1.5111252610445691,0.0266532400458977,0.0
-0.4892151848041076,0.752140254517156,-0.2300311019972149,0.0
-0.4109508836261532,-0.3138357865609131,-0.2016507693388854,0.0
-0.7378738109875919,0.3699741613009116,0.8506288982260618,0.0
-0.5117084682135176,0.489499359179244,0.2401364090424422,0.0
0.8252553223814493,1.539748400536483,-0.6011827857622558,0.0
-0.1475021532830568,0.6065082371022419,-0.5728024531039267,0.0
-0.77115154534671,0.775730754098406,-0.176108469946389,0.0
-1.566119643925873,1.276478425209734,-0.1095723567140833,0.0
0.2154716529674303,0.0978970661304993,-0.625148400007068,0.0
-0.3767487677570503,0.4338257801674943,-0.1660176850012052,0.0
-0.5856589890115794,0.51529163872141,-0.0770926426717735,0.0
-0.5600844339022457,0.5690779777666595,0.0250765548982129,0.0
-0.1105268928840258,-0.7692896984762405,-1.368082441596224,0.0
-0.04058202529586,-0.3006251067954123,-0.4545510670275546,0.0
-0.6254073939405306,0.4467219199385778,-1.4160136700858472,0.0
-0.9606497548917446,0.4357130201339946,-0.5132037545214351,0.0
-0.0384251351059157,0.2060988242098299,0.4782158663428725,0.0
-0.4337522942055554,0.1299801455609979,0.2603179789328098,0.0
-0.3841438198368552,0.2252857638692474,0.7699026186645914,0.0
-0.7686865279867812,0.3812976010999121,-0.6715029433490062,0.0
-0.5172547572733704,1.3091905846290606,-0.7150194534251109,0.0
-0.1139162917539371,-1.26028662976065,-0.9704424473500752,0.0
-0.1351770664833798,-0.5365301026079096,0.773055988959961,0.0
-0.4584024678049094,0.1356418654604975,0.1969352359958736,0.0
-0.6066116365710271,1.4941401013460611,0.128822437615883,0.0
-0.0615346728553102,0.5467456381630756,-0.126915893338618,0.0
-0.1438046272431543,0.3812976010999121,-0.3340923217444227,0.0
0.0949939295005868,0.0183184475430825,0.0263379030163603,0.0
-0.3274484205583409,-0.3172957264994952,-1.4677289429299143,0.0
-0.0584534011553913,0.592039397359075,0.07048508715154,0.0
-0.6531388392398086,1.0607039890399037,-0.037360176950112,0.0
-0.139490846863267,0.399226380781661,-0.1830458845962028,0.0
-0.1499671706429922,0.942751491133654,-0.5043743176943986,0.0
-0.0627671815352786,0.9867870903519874,0.1083255306959793,0.0
-0.2812293450595532,0.8282589331659894,-0.7465531563788096,0.0
-0.3742837503971133,0.0724193265827491,-0.0581724208995532,0.0
-0.4858257859341862,0.7527693345059904,-1.2674899291739237,0.0
-0.3502498311377443,-0.8636516968012385,-0.3000359225544274,0.0
-0.2424823534330685,0.0969534461472491,1.2233572671387922,0.0
-1.697073691172453,0.1236893456726653,-0.5677570606313348,0.0
-0.0211700135863679,0.230318403779914,-0.2054348136933294,0.0
-0.3841438198368552,-0.6909692398664911,-1.518498204685371,0.0
-0.308960790358826,2.365730425874637,0.0830985683330198,0.0
-0.6103091626109334,0.8930541720158223,0.4432134560642667,0.0
-0.1666060378225564,-0.2534441076329133,-0.8490376909783336,0.0
-0.1736929627323715,0.3224786221439961,-0.9694964362614642,0.0
-0.224533945781039,2.431705189703536,0.5274084429506428,0.0
-0.6808702845390738,-1.144535911815318,-1.8212217530408807,0.0
-0.2368590325807161,0.1117368258848318,-0.6636195176105808,0.0
-0.2972519578991326,0.8961995719599886,0.0919280051600549,0.0
0.4086673885523673,1.0456060693079037,-0.6232563778298457,0.0
0.2000652944678344,0.5936120973311582,-0.5223485283780077,0.0
-0.0732435053150037,0.0614104267781658,-0.1054729753301025,0.0
0.2102334910775671,-0.0408150714072494,-0.6812783912646524,0.0
-0.0023742562168606,-0.9561264551597376,-0.4879767921584756,0.0
-1.6909111477726049,1.3793330033839837,-0.5873079564626287,0.0
-0.1712279453724361,0.775101674109573,-0.6465913180155828,0.0
-0.516022248593406,1.2025615265218208,0.3587031321483518,0.0
-0.1746173442423461,0.8395823729649886,-0.3129647407654441,0.0
-0.2168307665312403,0.6492856763429079,0.1572027702742134,0.0
-0.7116830015382759,0.6797960558013247,-0.2350764944698068,0.0
-0.3440872877379051,-0.4358773043945775,-0.22530104655416,0.0
-0.7270893600378705,-0.7054380796096579,0.0392667212273775,0.0
-0.3758243862470741,0.681683295767825,-0.3135954148245182,0.0
-0.3631911722774049,-0.6330938808938251,-0.4381535414916302,0.0
-0.275066801659714,0.2664905031378292,-0.6027594709099405,0.0
-0.3792137851169844,0.2457308635063297,0.0610249762654299,0.0
-0.3628830451074123,-0.2792363871750799,-0.2940445189932245,0.0
-0.3157395880986487,-0.0099901519544167,-0.6733949655262271,0.0
-1.6989224541923995,0.4492382398939113,-0.224039698436012,0.0
-0.3034145012989717,1.379962083372815,-0.2596727827736922,0.0
-0.0359601177459803,1.0798909286993197,-0.3848615834998792,0.0
0.2284129941070908,1.558306260207064,0.1099022158436641,0.0
-0.4750413349844776,-0.7724350984204068,-1.4642602356050076,0.0
-0.2297721076709009,0.3834993810608282,0.5267777688915691,0.0
0.4049698625124636,-0.6934855598218244,0.1146322712867184,0.0
-1.260149364123899,-0.25470226761058,-0.3593192841073822,0.0
0.0657218483513545,0.9650838307372376,0.0758458166536681,0.0
-0.4753494621544622,0.7260334349805743,-0.6866391207667818,0.0
-0.3530229756676708,0.3759504211948284,-1.0382399087005296,0.0
-0.260584824670094,0.4948465390843264,-0.620103007534476,0.0
-0.8186031295254714,1.552330000313143,-0.1439440929336156,0.0
0.6637966853056805,-0.7714914784371566,-0.2953058671113725,0.0
-0.6016816018511564,0.5873212974428256,-0.7326783270791825,0.0
0.3159211103847981,-0.8523282570022394,-0.2309771130858258,0.0
0.2697020348860091,0.1768466047290804,-0.4703179185044039,0.0
0.0364497672021221,0.4225023403684951,-1.184871627435231,0.0
-0.5462187112526131,1.6284486789619734,-0.0010964185533576,0.0
-0.1422639913931949,0.1523124851645817,-0.2205709911111051,0.0
-0.5354342603028918,-0.030120711597083,-0.5917226748761469,0.0
0.0148808653026871,0.5426566182356592,-0.5400074020320793,0.0
0.0114914664327757,1.1569532273314018,0.4627643518955593,0.0
0.1341260800895621,0.1356418654604975,-0.8843554382864769,0.0
-0.5126328497234842,-0.1509040694530814,-0.3457597918372915,0.0
0.0740412819411366,-0.2094085084145805,-0.805836517931765,0.0
-0.9261395118526492,-0.060002011066666,-0.7761948371552873,0.0
-0.2008081536916609,-0.382720045338161,-0.9499455404301717,0.0
0.0484667268318066,0.5253569185427432,0.0304372844003423,0.0
-0.015931851696506,0.808128373523323,-0.2300311019972149,0.0
3.3343348676256865,0.5939266373255754,-0.8654352165142566,0.0
-0.5465268384225976,-1.0281561138811532,-1.5635913999091646,0.0
0.1125571781901271,1.7838314362038068,-0.8168733139655598,0.0
0.0096427034128238,2.397813505305132,-2.0451110440121543,0.0
-0.1653735291425893,0.46622339959241,-0.1811538624189809,0.0
-0.311117680548769,0.4460928399497436,-0.2130029024022172,0.0
-0.3219021314984866,0.1504252451980814,-0.2454826164445276,0.0
-0.3185127326285752,0.7508820945394901,-0.0963282014735297,0.0
-0.3203614956485272,-0.0250880716864164,-0.3763474837023802,0.0
-0.2501085008903688,-0.0411296114016662,-0.0338914696252049,0.0
-0.2824618537395203,0.0214638474872501,-0.1565575741150953,0.0
-0.1496590434730011,-0.3512660458964955,0.0417894174636734,0.0
-0.1065212396741309,0.7115645952374076,-0.1537195408492624,0.0
-0.2528816454202955,1.0503241692241527,-0.0383061880387231,0.0
-0.3043388828089478,0.2406982235956631,-0.2461132905036015,0.0
-0.3172802239486081,2.1074930904585547,-0.0846607313806614,0.0
-0.237167159750707,1.734448657080395,0.2918516818865099,0.0
-0.8900886329635914,1.3019561647574764,0.2950050521818795,0.0
0.2046872020177127,1.8222053155226443,0.3949668905451062,0.0
-0.1881749397219916,1.0783182287272364,-0.4520283707912586,0.0
-0.1869424310420231,0.9701164706479044,0.0853059275397782,0.0
-0.4473098896852008,0.4489236998994941,-0.0638484874312188,0.0
-0.3413141432079786,0.4335112401730771,0.1540493999788438,0.0
-0.3545636115176302,0.013600347626833,-0.0238006846800211,0.0
-0.4143402824960646,0.2523362033890794,-0.1351146561065798,0.0
-0.2454865933404892,-0.3610167857234115,-0.4438296080232971,0.0
-0.3579530103875416,0.0834282263873325,-0.0061418110259495,0.0
-0.1595191129127427,0.3822412210831622,-0.0726779242582553,0.0
-0.2078950786014746,0.3951373608542446,-0.219940317052031,0.0
-0.2322371250308362,0.7011847754216571,-0.1206091527478781,0.0
0.2435112254366956,0.8285734731604052,0.3593338062074254,0.0
-0.3622667907674288,1.5457246604303907,0.0241305438096018,0.0
-0.088957990984592,-1.2231709104194832,-1.2454163371063336,0.0
0.128887918199699,1.941415973406557,0.1127402491094975,0.0
-0.2747586744897228,1.4617424819211442,0.0912973311009813,0.0
0.4182193308221165,-2.0265060561596417,-0.6409152514839173,0.0
-0.0809466845648023,0.1312383055386652,-0.2785930045459119,0.0
-0.6586851282996615,1.1902944667395703,-0.269763567718876,0.0
-0.4775063523444065,1.229611966041649,-0.271340252866561,0.0
-0.6386568622501808,0.4709414995086607,0.1672935552193972,0.0
-0.3021819926190034,0.808757453512156,-0.4135572531877458,0.0
0.1760313752084639,1.0987633283643183,0.3082492074224329,0.0
-0.4744250806444953,0.4766032194081603,-0.5497828499477256,0.0
-0.3813706753069285,0.0796537464543319,-0.1303846006635249,0.0
-0.3400816345280104,0.105760565990915,-0.1518275186720405,0.0
0.381552197593078,1.3073033446625657,-0.0906521349418631,0.0
-0.1191544536438003,1.7957839559916482,-0.0487123100134431,0.0
-0.1200788351537762,0.0598377268060826,-0.0152865848825221,0.0
0.2564525665763562,0.5964429572809087,0.1956738878777263,0.0
-0.1089862570340663,0.5970720372697417,0.1297684487044942,0.0
0.3140723473648463,0.5741106176773261,-0.1139870751276013,0.0
-0.0960449158944058,1.4847039015135597,0.4523582299208394,0.0
-0.4741169534744976,1.28685824502549,-0.028846077152613,0.0
-0.7101423656883138,0.2913391626967463,0.0635476725017259,0.0
0.1803451555883498,-0.3333372662147452,-0.1616029665876872,0.0
0.1002320913904501,-1.0306724338364863,-0.0572264098109421,0.0
-0.54714309276258,0.3098970223673296,-0.2508433459466564,0.0
-0.2347021423907717,-2.245740432268055,-0.0868680905874198,0.0
-0.1336364306334203,0.3177605222277452,-0.3930603462678407,0.0
-0.8238412914153268,-0.8872421963824885,-0.7055593425390008,0.0
0.052780507211694,-0.667064200290824,-0.0509196692202029,0.0
-0.2103600959614101,-0.890702136321072,-0.4189179826898738,0.0
-0.4833607685742571,-1.6776812023515608,-1.3393867719083588,0.0
-0.2775318190196495,0.0947516661863317,-0.7399310787585329,0.0
-0.0060717822567644,-1.401200547259315,-0.9918853653585914,0.0
-0.0744760139949708,0.8235408332497386,0.2634713492281794,0.0
-0.3148152065886729,1.6001400794644824,-0.1458361151108376,0.0
-0.9344589454424286,1.5737187199334726,0.2183781540043898,0.0
0.0564780332515964,0.9408642511671536,-0.5469448166818934,0.0
0.1273472823497395,0.2092442241539975,-0.1817845364780548,0.0
-0.6777890128391626,-0.2204174082191638,0.0600789651768188,0.0
-0.3095770446988095,0.8829888921944877,-0.1593956073809284,0.0
-0.3151233337586652,0.1545142651254979,-0.5103657212556016,0.0
-0.77115154534671,0.8534221327193224,-0.4126112420991346,0.0
-0.9024137197632748,0.288822842741413,-0.4331081490190384,0.0
-0.4528561787450551,-0.1049812302682486,-1.0552681082955264,0.0
-0.6454356599900113,-0.5318120026916601,-0.6163189631800314,0.0
-0.9427783790322212,-0.3389989861142461,-0.2804850267231339,0.0
-0.5246498093531702,-0.0203699717701664,-0.1521428557015775,0.0
-0.7255487241879086,0.7700690341989064,0.0528262134974684,0.0
-0.4171134270259911,-0.1952542086658308,0.0499881802316349,0.0
0.1295041725396825,0.8609710925853223,-0.3167487851198881,0.0
-0.3339190911281725,0.5067990588721599,0.1404899077087529,0.0
-0.8749904016339946,0.1142531458401651,-0.4141879272468194,0.0
-0.3484010681177923,-0.7790404383031565,-0.459281122470609,0.0
-0.5203360289732818,-0.398761585053411,-0.0909674719714005,0.0
-0.6904222268088306,1.195327106650237,-0.9786412101180368,0.0
-0.1413396098832189,0.8823598122056547,-0.2927831708750766,0.0
-0.252265391080312,0.4611907596817434,-0.4577044373229242,0.0
-0.4873664217841481,0.6357604565829913,-0.8421002763285195,0.0
-0.800731753665935,-0.3182393464827454,-0.2804850267231339,0.0
-0.6571444924496996,1.3107632846011463,-0.5160417877872685,0.0
-0.6583770011296639,-0.0071592920046662,-0.5103657212556016,0.0
-0.0183968690564414,0.4118079805583276,-0.4636958408841273,0.0
-0.780703487616467,1.3371846441321558,0.1666628811603236,0.0
-0.2969438307291415,-0.3622749457010787,-1.221766059891059,0.0
-0.3718187330371781,0.924822711451905,-0.0887601127646421,0.0
-0.4417636006253453,-0.3198120464548285,0.3120332517768774,0.0
0.0758900449610885,-0.0449040913346662,0.0859366015988519,0.0
0.029362842292307,0.3926210408989113,-0.2476899756512866,0.0
-0.1185381993038168,-0.3937289451427444,0.07048508715154,0.0
0.2934278269753871,0.7568583544334069,0.0468348099362653,0.0
-0.1376420838433152,0.9905615702849866,-0.811827921492968,0.0
0.0185783913425895,1.3145377645341496,0.2729314601142895,0.0
-0.5277310810530942,1.4708641417592363,-0.1045269642414915,0.0
0.0490829811717902,1.0327099295368198,0.2319376462744807,0.0
-0.6959685158686836,0.5602708579229924,-0.3933756832973769,0.0
0.24905751449655,0.0783955864766659,0.4148331234059363,0.0
-0.0803304302248175,0.6275824167281584,-0.2413832350605467,0.0
-0.781627869126434,0.759060134394323,-0.0982202236507516,0.0
0.0450773279618954,0.4492382398939113,-0.0323147844775201,0.0
-0.2168307665312403,-0.1119011101454152,-0.7065053536276119,0.0
-0.5551543991823749,-0.0213135917534164,-0.7137581053069623,0.0
0.161857525388835,0.3117842623338285,-0.0023577666715049,0.0
-0.4765819708344396,0.8310897931157385,-0.2331844722925848,0.0
9.076114307474908e-05,0.2356655836849965,0.0269685770754353,0.0
-0.5301960984130234,2.044270551580807,-0.045243602688536,0.0
0.3753896541932388,1.7498611168068168,0.2309916351858696,0.0
-0.3782894036070097,1.5579917202126412,-0.224039698436012,0.0
-0.8734497657840323,0.4558435797766609,0.1814837215485618,0.0
-0.1564378412128237,1.207279626438065,0.3382062252284481,0.0
-0.4765819708344396,-0.0697527508935824,-0.7172268126318694,0.0
-0.3465523050978406,-0.3780019454219116,-0.6134809299141993,0.0
-0.6599176369796261,-0.1084411702068319,-0.2117415542840693,0.0
0.1273472823497395,0.531962258425493,0.3624871765027963,0.0
-0.0877254823046237,-1.286078909302817,-0.5466294796523561,0.0
-0.5794964456117313,-0.3367972061533286,-0.3968443906222839,0.0
-0.810899950275674,0.6414221764824922,-0.5447374574751338,0.0
-0.4768900980044244,-0.6186250411506583,-0.1808385253894439,0.0
-0.2534978997602788,0.2708940630596627,-0.7383543936108481,0.0
-0.6583770011296639,0.5313331784366601,-0.4633805038545897,0.0
-0.1807798876421852,0.9455823510834044,-0.3413450734237736,0.0
-1.0728080447688086,0.9210482315189044,0.17423096986921,0.0
-0.3237508945184384,0.2844192828195794,-0.5724871160743892,0.0
-0.1330201762934368,0.2797011829033299,-0.5094197101669904,0.0
0.1834264272882702,0.5322767984199102,-0.490814825424309,0.0
-0.2818455993995368,0.9304844313514046,0.0209771735142322,0.0
-0.99608437944082,1.184632746840072,0.0553489097337644,0.0
-0.1807798876421852,0.9053212317980716,-0.2309771130858258,0.0
0.2854165205555974,0.3023480625013297,0.032959980636637,0.0
-0.4639487568647638,-0.3430880060416626,-0.0401982102159441,0.0
-0.2719855299597952,1.1928107866948967,-0.1202938157183411,0.0
-0.6254073939405306,0.7480512345897397,0.0033182998601606,0.0
-0.1431883729031708,1.130531867800401,-0.2527353681238783,0.0
-0.6112335441209004,-0.9482629552993208,-0.27039424177795,0.0
-0.1203869623237687,-0.4748802637022443,-0.3170641221494252,0.0
-0.3123501892287374,0.4265913602959115,0.0130937477758069,0.0
-0.7563614411870977,-0.2326844680014136,-0.6648808657287294,0.0
-0.6793296486891245,-1.134785171988402,-0.6172649742686426,0.0
-0.4121833923061203,0.911612031686404,0.1193623267297742,0.0
-0.8931699046635155,0.0016478278389996,-0.2543120532715634,0.0
-0.7486582619373003,1.2613805054777345,0.4665483962500039,0.0
-1.0512391428693788,0.2306329437743299,-0.540638076091153,0.0
-0.5853508618415818,-0.5871710417089926,-0.3359843439216446,0.0
-0.8802285635238498,0.7785616140481565,-0.3435524326305325,0.0
-0.1570540955528073,0.2822175028586632,0.0004802665943271,0.0
-0.8749904016339946,1.506407161128312,0.1341831671180124,0.0
-0.3083445360188425,0.1661522449189142,-0.5365386947071723,0.0
0.2447437341166627,-1.6679304625246498,-0.5731177901334641,0.0
-0.0091530539566834,0.0840573063761655,-0.2940445189932245,0.0
-0.1974187548217496,0.6857723156952414,0.4851532809926867,0.0
-0.4904476934840722,-0.3103758466223296,-0.5031129695762513,0.0
-0.3197452413085437,0.1466507652650809,-0.3142260888835921,0.0
-0.1841692865120966,0.7014993154160744,-0.1943980176595346,0.0
-0.1219275981737282,0.2095587641484134,-0.2281390798199929,0.0
-0.4922964565040189,0.5366803583417424,-0.3126494037359072,0.0
-0.3000251024290605,1.5539027002852288,-0.0465049508066846,0.0
-0.9298370378925552,1.0003123101119042,-0.1798925143008329,0.0
-0.6522144577298289,0.1268347456168315,-0.703982657391316,0.0
-0.3385409986780507,0.2350365036961635,-0.0856067424692725,0.0
0.2724751794159356,0.6889177156394077,0.1310297968226428,0.0
-0.4833607685742571,0.8902233120660717,-0.0061418110259495,0.0
-0.4889070576341103,-0.4258120245732443,-0.1338533079884318,0.0
-1.0305946224799156,1.0408879693916526,-0.3262088960059979,0.0
0.9192341092289864,0.5093153788274932,0.1363905263247709,0.0
-0.5881240063715083,-0.2172720082749971,-0.031368773388909,0.0
-0.2026569167116115,0.7719562741654067,-0.2792236786049859,0.0
-0.0701622336150847,0.4118079805583276,-0.1215551638364892,0.0
-0.3289890564083017,-0.590945521641992,-0.3574272619301599,0.0
-0.9125819163730012,-0.3172957264994952,-0.7008292870959464,0.0
-0.286467506949415,-0.674298620162408,-0.4334234860485759,0.0
-0.0975855517443653,-0.0005539521219165,-0.2268777317018449,0.0
-1.0213508073801565,1.6300213789340594,0.5661948975836932,0.0
-0.4642568840347561,-0.0405005314128328,-0.3905376500315447,0.0
-0.4540886874250222,0.2583124632829963,-0.7181728237204805,0.0
-0.7566695683570952,1.0883835085485696,-0.4145032642763556,0.0
-0.0026823833868531,1.041517049380487,0.2568492716079027,0.0
0.3695352379633921,-0.0688091309103325,0.2984737595067865,0.0
-0.5462187112526131,1.1874636067898212,0.534345857600457,0.0
-0.6247911396005482,0.2756121629759135,0.0162471180711765,0.0
-1.396033446090337,-0.1433551095870815,-0.2924678338455396,0.0
-0.4414554734553541,-0.1527913094195813,0.5942598932124862,0.0
-0.6494413131999022,-0.5749039819267421,-0.2237243614064749,0.0
-0.5061621791536643,0.0749356465380824,-0.4561277521752394,0.0
0.2016059303177938,-0.1191355300169985,-0.043351580511315,0.0
-0.7267812328678729,1.0402588894028195,-0.3750861355842316,0.0
-0.44237985496533,0.3511017616359125,-0.2300311019972149,0.0
-0.4303628953356441,0.1743302847737471,-0.4264860713987616,0.0
-0.1194625808137928,1.729101477175306,0.0269685770754353,0.0
-0.4577862134649259,0.5608999379118266,-0.4640111779136634,0.0
0.1017727272404095,-0.0612601710443326,-0.2896298005797066,0.0
-0.0205537592463844,0.7125082152206577,-0.1855685808324987,0.0
0.641611529066262,0.4558435797766609,0.037059362020619,0.0
-0.2870837612893999,0.8288880131548224,-0.126285219279544,0.0
-0.4682625372446471,0.5344785783808264,-0.2539967162420263,0.0
-0.3579530103875416,0.682312375756658,-0.172009088562408,0.0
-0.1894074484019599,-0.2534441076329133,-0.4523437078207948,0.0
0.2607663469562434,1.4519917420942332,-0.125023871161396,0.0
-0.2886243971393593,1.0783182287272364,-0.2517893570352675,0.0
-0.0470526958656902,0.7832797139644059,-0.2741782861323939,0.0
-0.3379247443380672,-0.8957347762317386,0.2644173603167906,0.0
-0.6854921920889598,-0.6604588604080743,-0.2662948603939691,0.0
-0.3530229756676708,0.1743302847737471,-0.0238006846800211,0.0
-0.2260745816309984,0.9701164706479044,-0.3331463106558118,0.0
-0.2223770555910947,0.9355170712620712,-0.2637721641576731,0.0
0.3756977813632313,0.7128227552150734,-0.1322766228407469,0.0
-0.5915134052414172,0.5200097386376594,-0.2858457562252627,0.0
-0.2005000265216685,-0.1191355300169985,-0.1061036493891764,0.0
-0.2799968363795848,0.3627397414293289,-0.126915893338618,0.0
-0.4858257859341862,0.7842233339476561,0.0512495283497836,0.0
-0.9427783790322212,0.3045498424622457,0.1531033888902326,0.0
0.0681868657112899,0.5162352587046602,-0.0253773698277059,0.0
-0.3899982360667018,0.5134043987549097,-0.2883684524615587,0.0
-0.4161890455160166,0.2718376830429129,-0.4334234860485759,0.0
-0.0054555279167795,0.6483420563596578,-0.3407143993646996,0.0
-0.3903063632366942,0.8358078930319893,-0.5255018986733773,0.0
-0.3055713914889146,-1.90194821837064,-0.0465049508066846,0.0
-0.4522399244050715,0.3772085811724943,-0.38896096488386,0.0
-1.1091670508278508,-0.1515331494419147,-0.2741782861323939,0.0
-0.3684293341672681,1.4183359626916527,-0.2975132263181315,0.0
-0.3333028367881876,-0.0228862917254997,0.0909819940714438,0.0
-0.3280646748983256,0.6964666755054076,-0.1811538624189809,0.0
-0.4944533466939632,0.8134755534284055,-0.0547037135746461,0.0
-0.331454073768237,-0.2521859476552467,-0.4116652310105235,0.0
-0.5166385029333883,0.4127516005415777,0.1836910807553202,0.0
0.0798956981709834,-0.1439841895759148,0.0089943663918261,0.0
-0.368737461337259,0.0107694876770826,-0.3861229316180265,0.0
-0.2051219340715469,1.174567467018739,-0.3672027098458075,0.0
-0.0895742453245756,-0.8554736569464056,-0.3473364769849764,0.0
-0.3973932881465079,1.0956179284201522,-0.0900214608827894,0.0
-0.0492095860556332,-0.8098653577559891,-0.5478908277705047,0.0
-0.052907112095537,-0.0055865920325831,-0.177369818064537,0.0
-0.202040662371628,1.4076416028814882,-0.0755159575240874,0.0
9.076114307474908e-05,-1.311556648850566,-0.1508815075834295,0.0
-0.4473098896852008,-0.6478772606314077,-0.3123340667063702,0.0
0.2946603356553542,0.1592323650417473,0.1710775995738404,0.0
-0.2075869514314823,-1.0070819342552368,-0.4826160626563462,0.0
-0.2824618537395203,0.3696596213064944,-0.3413450734237736,0.0
-0.2263827088009896,0.2869356027749127,-0.3593192841073822,0.0
-0.1983431363317255,1.059760369056653,0.0250765548982129,0.0
-0.2534978997602788,-0.5878001216978256,-0.2284544168495298,0.0
-0.5643982142821341,1.656757278459478,-0.0004657444942839,0.0
-0.6645395445295121,0.2866210627804955,-0.3463904658963655,0.0
-0.5730257750419113,-0.3597586257457454,-0.2685022196007281,0.0
-0.0643078173852381,1.767789896488566,-0.275754971280079,0.0
-0.3567205017075745,-0.200601388570914,-0.3028739558202604,0.0
-0.430979149675629,0.1145676858345822,-0.2215170021997161,0.0
-0.518487265953335,0.4316240002065781,-0.7484451785560319,0.0
0.1929783695580193,0.4372857201060777,-0.0994815717688996,0.0
-0.345936050757857,0.5901521573925761,-0.2874224413729477,0.0
-0.6703939607593499,0.5690779777666595,-0.2098495321068472,0.0
-0.3893819817267183,-0.0036993520660828,-0.4586504484115354,0.0
0.098999582710483,0.8634874125406556,-0.2656641863348952,0.0
-0.3779812764370173,1.0792618487104868,-0.026323380916317,0.0
-0.643278769800067,-0.2465242277557468,-0.318010133238036,0.0
-0.3271402933883497,0.5285023184869095,0.0758458166536681,0.0
0.0912964034606844,-1.3474142082140652,-0.2019661063684224,0.0
-0.4174215541959837,0.6722470959353248,-0.625148400007068,0.0
-0.5483756014425574,0.6889177156394077,-0.2539967162420263,0.0
-0.0029905105568441,-0.0427023113737495,-0.1647563368830572,0.0
-0.104364349484188,0.55586729800116,0.0115170626281221,0.0
-0.176466107262298,1.2491134456954835,-0.2741782861323939,0.0
-0.1977268819917407,1.381534783344901,-0.3504898472803464,0.0
-0.0636915630452545,-0.5340137826525762,-0.1508815075834295,0.0
-0.3043388828089478,-0.0990049703743321,-0.1111490418617683,0.0
-0.1407233555432354,0.1488525452259983,-0.0133945627052998,0.0
-0.1823205234921448,-0.1823580688947477,-0.3394530512465515,0.0
-0.4842851500842369,-0.0694382108991658,-0.1814691994485179,0.0
-0.3437791605679141,0.9163301316026548,0.0537722245860795,0.0
-0.5286554625630743,0.7216298750587408,-0.5324393133231915,0.0
-0.0948124072144387,0.5590126979453263,-0.2325537982335109,0.0
-0.3859925828568069,0.6473984363764077,0.3517657174985376,0.0
-0.4562455776149665,0.4058317206644108,-0.0487123100134431,0.0
-0.4824363870642773,0.3382056218648289,-0.1675943701488902,0.0
-0.2075869514314823,0.5067990588721599,-0.7730414668599177,0.0
-0.2026569167116115,0.2822175028586632,-0.4353155082257982,0.0
-0.6429706426300694,0.1444489853041647,-0.4769399961246807,0.0
-0.0353438634059967,0.9053212317980716,-0.2003894212207375,0.0
-0.2917056688392783,-0.2886725870075801,-0.1404753856087088,0.0
-0.248567865040408,0.2910246227023291,-0.1657023479716682,0.0
-1.1929776410656543,1.5535881602908062,-0.1347993190770428,0.0
-0.2938625590292213,0.516549798699076,0.078999186949039,0.0
0.1686363231286578,-0.3965598050924948,0.34325161770104,0.0
-0.3092689175288186,0.1447635252985818,0.1035954752529235,0.0
-0.0895742453245756,0.7961758537354896,0.1676088922489333,0.0
-0.524033555013188,-0.3150939465385791,0.0654396946789481,0.0
-0.1767742344322904,1.325232124344314,0.1969352359958736,0.0
-0.2858512526094314,-0.4884054834621597,-0.2650335122758211,0.0
-0.372743114547154,-0.3166666465106622,-0.1111490418617683,0.0
-0.4220434617458619,0.2457308635063297,-0.0092951813213191,0.0
-0.0744760139949708,-0.3440316260249126,0.2385597238947574,0.0
-0.5046215433037025,0.1208584857229148,0.0648090206198745,0.0
0.2453599884566462,0.146965305259498,-0.0231700106209475,0.0
-0.2411728129606019,-0.2845835670801623,-0.0342068066547424,0.0
-0.1915643385919028,0.0988406861137481,-0.0849760684101975,0.0
-0.1884830668919839,0.0865736263314988,-0.2205709911111051,0.0
-0.4654893927147207,0.0047932277831671,-0.4075658496265427,0.0
-0.3487091952877849,0.3036062224789956,-0.0490276470429806,0.0
-0.151815933662944,0.2211967439418297,-0.0625871393130715,0.0
-0.4038639587163384,0.6033628371580756,0.4602416556592634,0.0
-0.3169720967786159,0.1013570060690814,-0.3766628207319163,0.0
-0.2294639805009098,0.1337546254939985,-0.3599499581664558,0.0
-0.2568872986301902,0.0268110273923325,-0.5043743176943986,0.0
-0.1342526849734052,0.3919919609100783,-0.4025204571539508,0.0
-0.0596859098353584,0.5618435578950755,-0.2363378425879548,0.0
-0.0110018169766352,-0.1983996086099975,0.0651243576494107,0.0
-0.6053791278910626,-0.1081266302124153,-0.6528980586063233,0.0
-0.1589028585727591,1.2157722062873126,-0.22214767625879,0.0
-0.342854779057938,0.5961284172864915,-0.3725634393479356,0.0
-0.1835530321721131,0.2677486631154964,-0.3504898472803464,0.0
-0.0479770773756662,0.1705558048407478,-0.2811157007822078,0.0
-0.4664137742247004,0.1878555045336638,-0.2189943059634201,0.0
-0.3425466518879457,-0.1924233487160808,-0.124708534131859,0.0
-0.6722427237793094,0.4435765199944103,-0.2331844722925848,0.0
-0.5483756014425574,0.817879113350239,0.0610249762654299,0.0
-0.2627417148600371,1.1921817067060654,-0.4930221846310674,0.0
0.064181212501395,0.7125082152206577,-0.2574654235669333,0.0
-0.7156886547481668,0.7206862550754906,-0.433738823078112,0.0
-0.0495177132256256,0.3690305413176614,-0.2580960976260074,0.0
0.0022476513330176,0.4426329000111615,-0.2079575099296253,0.0
-0.5061621791536643,0.1359564054549147,0.1802223734304131,0.0
-0.2571954258001828,0.6939503555500743,-0.3552199027234013,0.0
-0.286159379779424,-0.8029454778788236,-0.2486359867398974,0.0
0.1104002880001841,0.3463836617196618,-0.0219086625027988,0.0
-0.5693282490020048,0.2661759631434133,0.0436814396408958,0.0
-0.4919883293340343,0.4004845407593284,-0.4277474195169103,0.0
-0.393079507766622,0.8052975135735726,-0.1117797159208423,0.0
-0.335459726978132,-0.8903875963266548,-0.0307380993298353,0.0
-0.25041662806036,0.137843645421415,-0.1354299931361167,0.0
-0.4889070576341103,0.5215824386097426,-0.0934901682076965,0.0
-0.2929381775192454,0.6772797358459914,-0.0975895495916775,0.0
-0.2152901306812809,0.6797960558013247,-0.0625871393130715,0.0
0.0493911083417826,-0.8925893762875722,-0.3019279447316493,0.0
0.3377981394542243,0.9556476309047376,-0.0856067424692725,0.0
-0.3665805711473161,-0.2490405477110801,-0.3473364769849764,0.0
-0.4020151956963878,1.2381045458908964,-0.179577177271296,0.0
-0.4315954040156125,-0.0427023113737495,-0.3154874370017401,0.0
-0.3388491258480433,0.4278495202735775,-0.3467058029259025,0.0
-0.4263572421257494,0.8782707922782383,-0.1565575741150953,0.0
-0.6346512090402897,0.3819266810887451,-0.4671645482090343,0.0
-0.237167159750707,-0.3544114458406618,-0.268817556630265,0.0
-0.2612010790100775,0.3083243223952464,-0.1597109444104653,0.0
-0.0575290196454153,-0.2647675474319132,-0.3262088960059979,0.0
-0.2094357144514342,-0.0644055709884992,-0.4204946678375587,0.0
-0.2001918993516761,0.2089296841595804,-0.6163189631800314,0.0
-0.5680957403220406,0.3828703010719952,-0.2492666607989715,0.0
-0.432211658355596,0.7578019744166571,-0.1508815075834295,0.0
-0.3671968254872996,1.273018485271153,-0.4163952864535779,0.0
-0.5129409768934818,0.8078138335289059,-0.2413832350605467,0.0
-0.2575035529701751,0.7386150347572408,0.0556642467633005,0.0
-0.302798246958987,0.0085677077161665,-0.3709867542002508,0.0
-0.3003332295990528,0.5753687776549921,-0.2350764944698068,0.0
0.5947761992274894,0.6760215758683241,-0.6283017703024375,0.0
-0.4565537047849576,0.4665379395868271,0.0039489739192342,0.0
-0.1727685812223955,0.4920156791345773,-0.3514358583689574,0.0
-0.1986512635017167,0.6955230555221575,0.0348520028138593,0.0
-0.4359091843954998,0.3935646608821614,-0.2615648049509141,0.0
-0.4528561787450551,1.3661223236184787,0.1281917635568094,0.0
0.0235084260624603,1.1393389876440687,-0.2905758116683176,0.0
-0.2091275872814431,0.1280929055944976,-0.4577044373229242,0.0
-0.6075360180810069,-0.4550642440539937,-0.0121332145871525,0.0
-0.839555777084919,0.3923065009044955,-0.3656260246981214,0.0
-0.263666096370013,0.2674341231210793,-0.0846607313806614,0.0
-0.1545890781928719,0.4605616796929104,-0.1956593657776825,0.0
-0.0476689502056737,0.4847812592629932,0.3763620058024234,0.0
-0.3918469990866536,-0.8337703973316561,-0.3829695613226569,0.0
-0.1964943733117736,0.4394875000669939,-0.52424055055523,0.0
-0.3391572530180343,1.5249650207988923,0.5557887756089733,0.0
0.0758900449610885,-0.3119485465944128,-0.5359080206480986,0.0
-0.3357678541481231,-0.3327081862259122,-0.3167487851198881,0.0
-0.139490846863267,0.5973865772641588,-0.0748852834650137,0.0
-0.2726017842997787,0.0375053872025001,-0.4829313996858836,0.0
0.1837345544582612,-0.1216518499723318,0.5170023209759229,0.0
-0.3311459465982447,0.0900335662700822,-0.1300692636339879,0.0
-0.1305551589335014,1.239677245862982,0.0780531758604279,0.0
-0.8614328061543465,1.0320808495479867,-0.028846077152613,0.0
-0.5477593471025622,-0.1141028901063319,-0.3854922575589528,0.0
-0.4556293232749829,0.9622529707874876,0.0480961580544126,0.0
0.076506299301072,-0.5192304029149936,-0.1329072968998208,0.0
0.0287465879523235,0.3199623021886628,-0.1868299289506467,0.0
-1.1412122765070176,1.0531550291739031,-0.7156501274841846,0.0
-0.3397735073580192,-0.1839307688668309,-0.1616029665876872,0.0
-0.2516491367403284,-0.1609693492744146,-0.2848997451366517,0.0
0.1674038144486893,-0.2119248283699139,-0.3971597276518215,0.0
-0.3212858771585031,0.5958138772920757,0.134813841177086,0.0
-0.5061621791536643,-0.0326370315524163,-0.3334616476853487,0.0
-0.7619077302469508,0.47377235945841,0.1203083378183853,0.0
-0.2630498420300294,0.2425854635621634,0.0446274507295069,0.0
0.4807691463304774,0.6999266154439912,-0.0736239353468664,0.0
-0.5126328497234842,-0.4056814649305779,-0.5195104951121743,0.0
-0.3520985941576949,0.9436951111169042,-0.2290850909086039,0.0
-0.676556504159198,0.2384964436347469,0.101388116046165,0.0
-0.2679798767499002,1.084294488621153,-0.0764619686126985,0.0
-0.2457947205104815,-0.1452423495535814,-0.1306999376930619,0.0
-0.2809212178895606,0.2438436235398307,0.2092333801478172,0.0
0.2228667050472365,0.2812738828754131,-0.1508815075834295,0.0
-0.3178964782885917,-0.6466191006537417,0.0168777921302514,0.0
-0.5653225957921011,1.1997306665720715,0.1155782823753296,0.0
-0.032570718876069,0.4615052996761605,-0.0821380351443654,0.0
-0.1986512635017167,0.2661759631434133,0.2325683203335543,0.0
-0.8152137306555626,-0.490921803417493,0.2656787084349392,0.0
-0.2627417148600371,-0.0697527508935824,-0.1486741483766705,0.0
0.0484667268318066,-0.6768149401177413,-0.377924168850065,0.0
0.1575437450089477,-0.4846310035291604,-0.0096105183508566,0.0
-0.0076124181067238,0.8213390532888225,0.0525108764679309,0.0
0.0327522411622184,-1.0250107139369868,-0.2082728469591623,0.0
-0.1927968472718699,0.4816358593188269,-0.53464667252995,0.0
-0.0467445686956978,0.8449295528700724,0.3445129658191873,0.0
-0.3265240390483662,0.5514637380793265,-0.1997587471616635,0.0
-0.1502752978129846,0.7439622146623232,0.0856212645693157,0.0
-0.1921805929318863,0.1416181253544143,-0.5671263865722611,0.0
-0.4368335659054745,0.8638019525350715,-0.037360176950112,0.0
-0.6109254169509155,0.3674578413455783,-0.2341304833811958,0.0
-0.5483756014425574,0.5926684773479094,-0.2647181752462841,0.0
-0.4818201327242952,1.6577008984427326,-0.3873842797361751,0.0
-0.5662469773020808,0.927653571401654,-0.2836383970185038,0.0
-0.3413141432079786,0.2724667630317459,-0.4025204571539508,0.0
0.2219423235372605,0.3183896022165796,-0.1303846006635249,0.0
-0.0809466845648023,0.2784430229256626,-0.1606569554990763,0.0
0.0681868657112899,0.4574162797487442,-0.1004275828575106,0.0
-0.6747077411392385,0.5168643386934931,-0.5236098764961563,0.0
-0.2439459574905298,-2.085954115104387,-0.2237243614064749,0.0
-0.2048138069015558,0.4275349802791617,0.1631941738354165,0.0
-0.275066801659714,-0.024458991697583,0.1218850229660701,0.0
0.0333684955022019,1.235902765929979,-0.2003894212207375,0.0
-0.7428038457074626,0.5391966782970757,-0.4195486567489475,0.0
0.2570688209163397,1.6199560991127262,0.0263379030163603,0.0
-0.5329692429429498,-0.1301444298215816,0.0304372844003423,0.0
-1.701695598722326,0.8398969129594058,-0.1303846006635249,0.0
-0.2288477261609248,0.8200808933111553,-0.1316459487816728,0.0
-0.3517904669877037,0.105131486002082,-0.5601889719224469,0.0
0.348890717573933,1.2418790258238994,-0.6106428966483659,0.0
-0.2303883620108856,-0.1842453088612476,-0.4145032642763556,0.0
-0.5348180059629093,0.2966863426018287,-0.1808385253894439,0.0
0.0352172585221538,1.0418315893749028,-0.0260080438867796,0.0
-0.4562455776149665,-0.5673550220607422,-0.4939681957196786,0.0
0.4126730417622622,-0.2440079078004135,0.2836529191185469,0.0
-0.1659897834825729,-0.8787496165332385,-0.1798925143008329,0.0
-0.6503656947098821,0.1324964655163312,-0.272916938014246,0.0
-0.2337777608807957,-0.4440553442494104,-0.3795008539977498,0.0
-0.286467506949415,0.9358316112564872,-0.5245558875847662,0.0
-0.260584824670094,0.3353747619150784,-0.1373220153133388,0.0
-0.2408646857906108,0.7716417341709896,-0.0897061238532532,0.0
-0.0032986377268366,0.7801343140202396,-0.0559650616927948,0.0
-0.6457437871599959,-0.2408625078562468,-0.1704324034147231,0.0
-0.4978427455638718,0.447665539921828,0.0572409319109866,0.0
0.0962264381805552,1.3727276635012309,-0.6506906993995636,0.0
-0.357336756047558,-1.0114854941770703,-0.4797780293905141,0.0
-0.2516491367403284,0.4250186603238284,-0.0960128644439926,0.0
-0.2722936571297875,0.8892796920828218,-0.126915893338618,0.0
-0.1271657600635901,0.0375053872025001,-0.177685155094074,0.0
-0.7076773483283719,-0.5459663024404098,-0.5560895905384662,0.0
-0.3634992994473973,1.1286446278339024,-0.6393385663362325,0.0
-0.5033890346237251,1.8681281547074755,-0.1452054410517635,0.0
-0.4365254387354833,0.926395411423988,-0.2334998093221218,0.0
-0.4688787915846295,-0.2880435070187457,0.0064716701555302,0.0
-0.1163813091138725,1.3566861237859773,0.0878286237760742,0.0
-0.4214272074058783,-1.287337069280483,-0.0045651258782647,0.0
-0.1006668234442855,1.2673567653716549,-1.0849097890720043,0.0
-0.2288477261609248,0.7288642949303235,0.3914981832201992,0.0
0.649930962656044,0.1255765856391643,-0.1070496604777874,0.0
0.4305444176217935,0.7310660748912409,0.0525108764679309,0.0
-0.6488250588599199,1.5148997409775593,-0.1694863923261121,0.0
0.7047775989146067,0.2778139429368296,0.0424200915227471,0.0
-0.1980350091617331,-0.8224469575326557,-0.274493623161931,0.0
0.2114659997575354,0.8480749528142387,-0.3914836611201559,0.0
0.0195027728525654,0.8682055124569051,-0.4044124793311718,0.0
0.0148808653026871,-1.2442450900453998,-0.0846607313806614,0.0
-0.2559629171202157,0.7055883353434907,-0.2385452017947137,0.0
-0.1129919102439612,1.2365318459188237,-0.0266387179458545,0.0
-0.0452039328457383,0.935202531267654,-0.3485978251031245,0.0
-0.8663628408742172,1.4186505026860623,-0.3993670868585799,0.0
0.0013232698230417,0.966656530709321,-0.6292477813910488,0.0
-0.2220689284211034,-0.422037544640245,-0.1124103899799162,0.0
-0.5684038674920251,0.4083480406197441,-0.402835794183487,0.0
-0.4796632425343509,1.1814873468959004,-0.4558124151457019,0.0
-0.7726921811966722,0.5476892581463259,-0.3854922575589528,0.0
-0.3342272182981635,0.689861335622658,-0.1398447115496347,0.0
-0.2571954258001828,-0.398761585053411,-0.417341297542189,0.0
-0.139490846863267,0.8518494327472393,0.0761611536832056,0.0
0.1264229008397636,0.0227220074649161,0.528985128098329,0.0
-0.0248675396262716,0.2057842842154141,-1.329295986963175,0.0
-0.0846442106047048,1.0194992497713202,-0.172955099651019,0.0
-0.2840024895894797,0.3394637818424948,0.2335143314221655,0.0
-0.2507247552303523,0.7986921736908229,-0.3312542884785898,0.0
-0.6894978452988508,-0.330506406264996,-0.0342068066547424,0.0
-0.6879572094488887,-0.7793549782975737,-0.1940826806299976,0.0
-0.5308123527530183,-0.1153610500839986,-0.3350383328330337,0.0
-0.2439459574905298,-0.290559826974079,-0.3653106876685852,0.0
-0.113608164583946,0.6109117970240755,-0.0004657444942839,0.0
-0.1613678759326945,0.2841047428251622,-0.223409024376938,0.0
-0.0618428000253027,-1.2606011697550668,-0.2369685166470287,0.0
-0.2689042582598761,1.5167869809440675,-0.2855304191957257,0.0
-0.0871092279646402,0.9625675107819044,-0.6289324443615112,0.0
-0.2913975416692858,-0.5327556226749103,0.2666247195235503,0.0
-0.4661056470547028,1.206336006454824,0.1546800740379174,0.0
-0.3166639696086246,1.4519917420942332,-0.0471356248657583,0.0
-0.3653480624673479,0.5027100389447435,0.4637103629841705,0.0
-0.516022248593406,1.2984962248188954,0.1720236106624516,0.0
-0.500924017263796,0.2743540029982462,-0.4217560159557073,0.0
-0.3388491258480433,0.4237605003461611,-0.3807622021158985,0.0
-0.6029141105311207,0.4967337790508268,0.1609868146286567,0.0
-0.4328279126955796,0.9893034103073206,0.2174321429157787,0.0
-0.2248420729510302,0.5574399979732431,0.0468348099362653,0.0
-0.2168307665312403,-0.0983758903854987,-0.059749106047238,0.0
-0.6910384811488128,1.6013982394421458,-0.4015744460653397,0.0
-0.4956858553739278,0.5200097386376594,-0.1634949887649092,0.0
-0.2719855299597952,0.4536417998157435,-0.1392140374905608,0.0
-0.4201946987259115,0.9814399104469036,-0.3706714171707133,0.0
-0.1160731819438814,0.8279443931715723,0.3246467329583571,0.0
-0.1974187548217496,-0.3509515059020783,-0.271970926925635,0.0
-0.4704194274345914,0.1513688651813316,-0.2461132905036015,0.0
0.0906801491207008,0.6414221764824922,-0.2202556540815681,0.0
-0.8035048981958615,0.1746448247681643,-0.0584877579290907,0.0
-0.0658484532351975,1.4787276416196524,-0.4211253418966336,0.0
0.2049953291877052,0.5001937189894102,-0.123762523043248,0.0
-0.3967770338065244,0.2561106833220801,-0.3599499581664558,0.0
-0.5043134161337048,-2.2447968122848003,-0.1890372881574057,0.0
0.2669288903560813,-0.3915271651818283,-0.3832848983521944,0.0
-0.4383742017554339,-1.2068148307098177,-0.3615266433141407,0.0
-0.0914230083445274,0.0818555264152493,-0.5904613267579983,0.0
0.015805246812663,0.4328821601842441,-0.5173031359054158,0.0
-0.2066625699215077,0.297315422590663,-0.2495819978285085,0.0
0.2237910865572125,0.8370660530096553,-0.2196249800224941,0.0
-0.4214272074058783,0.4265913602959115,-0.1098876937436203,0.0
-0.6965847702086659,-0.876862376566738,-0.5374847057957833,0.0
0.0373741487120967,1.23307190598023,-1.0032374984219226,0.0
0.2003734216378255,0.406146260658828,-0.0367295028910383,0.0
-0.325291530368398,0.6549473962424076,0.2325683203335543,0.0
-0.5209522833132639,0.2189949639809136,-0.1228165119546371,0.0
-0.0750922683349555,0.1954044643996637,0.0200311624256211,0.0
-0.3422385247179533,-0.3764292454498285,-0.2883684524615587,0.0
-0.4374498202454592,0.5017664189614933,-0.3290469292718308,0.0
0.0151889924726782,1.3453626839869806,-0.1581342592627804,0.0
-0.2858512526094314,0.3831848410664111,-0.2089035210182363,0.0
-0.1592109857427502,0.9006031318818222,0.1376518744429195,0.0
-0.0883417366446085,1.0566149691124855,-0.3233708627401649,0.0
-0.1139162917539371,0.056063246873082,-0.371932765288862,0.0
-0.3268321662183574,0.7021283954049072,-0.5113117323442128,0.0
0.1861995718181966,0.5505201180960763,-0.2930985079046135,0.0
-0.4060208489062825,-0.4295865045062449,-0.0720472501991816,0.0
-0.1746173442423461,0.2353510436905806,-0.4804087034495877,0.0
-0.0094611811266744,0.1784193047011636,-0.0915981460304742,0.0
-0.1841692865120966,0.3998554607704954,-0.2962518781999835,0.0
-0.3129664435687209,0.1233748056782481,-0.3870689427066376,0.0
-0.5080109421736111,0.348270901686162,-0.4145032642763556,0.0
-0.6096929082709512,0.2910246227023291,-0.2010200952798115,0.0
-0.6263317754505103,0.5181224986711606,-0.3451291177782175,0.0
-0.4405310919453782,0.5596417779341594,-0.2423292461491576,0.0
-0.4183459357059595,0.4234459603517439,0.0351673398433968,0.0
-0.1496590434730011,0.0686448466497485,-0.175162458857778,0.0
-0.2051219340715469,1.0135229898774034,-0.053757702486035,0.0
-0.1758498529223145,-0.0688091309103325,-0.2549427273306373,0.0
-0.3055713914889146,-0.0908269305194988,-0.3359843439216446,0.0
-0.5850427346715973,0.3095824823729123,-0.0386215250682593,0.0
-0.5835020988216351,0.4086625806141613,-0.0556497246632573,0.0
-0.4417636006253453,0.4344548601563273,-0.5876232934921649,0.0
-0.4334441670355631,0.3507872216414953,-0.2776469934573009,0.0
-0.596443439961288,1.0874398885653191,-0.3164334480903511,0.0
-0.275066801659714,0.6864013956840744,0.2817608969413261,0.0
-0.2880081427993746,0.0170602875654165,-0.1871452659801838,0.0
-0.2476434835304335,-0.4037942249640776,-0.2029121174570334,0.0
-0.288316269969367,0.3860157010161615,0.1017034530757026,0.0
-0.3289890564083017,0.8455586328589054,-0.1360606671951908,0.0
-0.3844519470068475,0.5061699788833269,-0.0673171947561259,0.0
-0.1160731819438814,0.3963955208319119,0.1092715417845904,0.0
-0.1730767083923867,0.2388109836291641,-0.2555734013897114,0.0
-0.1099106385440423,-0.2427497478227469,-0.1105183678026944,0.0
-0.2229933099310796,0.072104786588332,-0.4031511312130245,0.0
-0.0297975743461424,0.7228880350364068,0.0011109406534008,0.0
-0.2152901306812809,0.2419563835733304,-0.3987364127995062,0.0
-0.1850936680220726,1.1761401669908242,-0.1382680264019498,0.0
-0.2596604431601181,-1.1284943721000682,-0.4274320824873728,0.0
-0.4143402824960646,0.2683777431043294,-0.0332607955661312,0.0
-0.1558215868728389,0.0749356465380824,-0.2328691352630478,0.0
-0.0091530539566834,0.2696359030819967,-0.3936910203269143,0.0
-0.2827699809095126,0.8282589331659894,0.131345133852179,0.0
0.0121077207727592,0.121173025717332,-0.047766298924832,0.0
-0.174309217072355,1.2607514254889027,-0.1814691994485179,0.0
-0.224533945781039,-0.1358061497210816,-0.5132037545214351,0.0
-0.4356010572255074,0.3768940411780785,-0.2445366053559166,0.0
-0.1582866042327743,-0.0618892510331659,-0.1373220153133388,0.0
-0.187558685382008,0.3879029409826618,-0.2498973348580454,0.0
-0.3881494730467512,0.3834993810608282,-0.1061036493891764,0.0
-0.3098851718688021,0.0519742269456656,-0.0493429840725181,0.0
-0.4516236700650869,-0.3540969058462458,0.0689084020038552,0.0
-0.0929636441944869,0.2359801236794136,-0.1663330220307422,0.0
-0.0892661181545831,0.2274875438301636,-0.2155255986385132,0.0
-0.2445622118305133,0.2718376830429129,-0.461803818706905,0.0
-0.368737461337259,0.2108169241260807,-0.1581342592627804,0.0
-0.4328279126955796,1.074858288788653,-0.1332226339293579,0.0
-0.3172802239486081,-0.463871363897661,-0.3085500223519263,0.0
-0.4858257859341862,0.6738197959074079,-0.2420139091196206,0.0
-0.1225438525137117,-0.2550168076049966,-0.4081965236856164,0.0
0.2456681156266386,0.4215587203852449,-0.0764619686126985,0.0
-0.187558685382008,-0.2729455872867465,0.0011109406534008,0.0
-0.3730512417171465,-0.2311117680293303,0.0736384574469096,0.0
-0.0636915630452545,0.74993847455624,-0.5936146970533679,0.0
-0.288316269969367,1.179600106929405,-0.2271930687313819,0.0
0.1581599993489313,0.9987396101398196,-0.543160772327449,0.0
-0.2171388937012327,-0.045847711317916,0.0465194729067278,0.0
-0.2365509054107235,0.0242947074369992,0.1720236106624516,0.0
-0.3536392300076557,1.0248464296764026,-0.0215933254732627,0.0
-0.2368590325807161,0.9915051902682368,-0.2032274544865704,0.0
-0.349941703967752,-0.0059011320270003,-0.3164334480903511,0.0
-0.3899982360667018,-0.0861088306032488,-0.4406762377279262,0.0
-0.3018738654490123,1.1254992278897349,-0.2227783503178641,0.0
-0.528039208223079,-0.6969454997604078,-0.3911683240906184,0.0
-0.1980350091617331,-0.5934618415973252,-0.3022432817611864,0.0
-0.2420971944705778,0.8675764324680721,-0.1902986362755537,0.0
-0.1416477370532114,-0.7167615194086571,-0.2801696896935968,0.0
-0.1927968472718699,0.2473035634784128,-0.222463013288327,0.0
-0.5607006882422279,0.4788049993690765,-0.3148567629426662,0.0
-0.2276152174809578,-0.3764292454498285,-0.2990899114658164,0.0
-0.2343940152207806,0.692063115583574,-0.1543502149083365,0.0
-0.3964689066365334,0.0632976667446661,-0.3028739558202604,0.0
-0.1105268928840258,0.3265676420714125,-0.6100122225892922,0.0
-0.4121833923061203,-0.085165210619999,-0.1934520065709237,0.0
-0.1345608121433963,0.6049355371301587,-0.2517893570352675,0.0
-0.3530229756676708,0.764721854293824,-0.2987745744362795,0.0
-0.2685961310898838,0.0110840276714997,-0.3590039470778448,0.0
-0.1696873095224753,1.433748422418062,0.0613403132949674,0.0
-0.3582611375575339,0.440431120050244,-0.4148186013058931,0.0
-0.2858512526094314,0.0434816470964155,-0.2596727827736922,0.0
-0.4756575893244598,0.0069950077440833,-0.0045651258782647,0.0
-0.3037226284689628,1.3450481439925712,-0.3378763660988667,0.0
-0.5502243644625041,-0.2650820874263298,-0.2007047582502744,0.0
-0.3194371141385511,0.698982995460741,-0.4365768563439455,0.0
-0.2038894253915798,-0.1622275092520813,-0.2467439645626755,0.0
-0.211284477471386,-0.2984233268344961,-0.3176947962084991,0.0
-0.2155982578512733,0.3904192609379951,0.0071023442146038,0.0
-0.2303883620108856,0.531962258425493,-0.7733568038894552,0.0
-0.4956858553739278,0.7467930746120737,-0.123762523043248,0.0
-0.3530229756676708,0.1519979451701646,-0.3306236144195158,0.0
-0.2035812982215875,0.6039919171469086,-0.1584495962923174,0.0
-0.5061621791536643,-0.5085360431048261,-0.1767391440054629,0.0
-0.5973678214712678,0.6055646171189917,-0.445406293170982,0.0
0.1914377337080599,0.1541997251310808,-0.0934901682076965,0.0
0.1100921608301917,0.3548762415689118,-0.1915599843937017,0.0
-0.1795473789622169,-0.0952304904413322,-0.0547037135746461,0.0
-0.9363077084623884,0.5583836179564933,-0.445406293170982,0.0
-0.5989084573212297,0.4973628590396597,-0.1483588113471336,0.0
-0.2488759922104006,0.956591250887988,-0.3602652951959934,0.0
-0.2710611484498191,0.4671670195756602,-0.428378093575984,0.0
-0.1900237027419434,-0.6126487812567415,0.2741928082324381,0.0
-0.2439459574905298,0.3904192609379951,0.0247612178686755,0.0
-0.1243926155336636,0.8147337134060727,-0.6324011516864183,0.0
-0.2291558533309174,1.1069413682191516,-0.1817845364780548,0.0
-0.2913975416692858,0.079339206459916,-0.3561659138120122,0.0
-0.4414554734553541,1.0305081495759036,-0.2921524968160026,0.0
0.1507649472691251,0.4136952205248279,-0.0584877579290907,0.0
-0.4146484096660558,-0.3040850467339957,-0.1780004921236109,0.0
-0.5745664108918604,0.1718139648184138,-0.0168632700302069,0.0
0.1261147736697724,0.0252383274202494,-0.2196249800224941,0.0
-0.0726272509750201,0.3768940411780785,-0.4018897830948758,0.0
-0.356104247367591,0.3316002819820791,-0.5113117323442128,0.0
-0.1767742344322904,-0.4063105449194109,0.0339059917252481,0.0
-0.486750167444166,0.0790246664654989,-0.2142642505203652,0.0
-0.2870837612893999,0.1041878660188319,-0.1180864565115822,0.0
-0.3163558424386323,0.3608525014628285,-0.3716174282593245,0.0
-0.334535345468156,1.0666802489338187,-0.0922288200895492,0.0
-0.5104759595335402,0.3611670414572457,-0.2826923859298928,0.0
-0.3511742126477202,-0.1203936899946652,-0.1830458845962028,0.0
-0.0871092279646402,0.288822842741413,-0.3523818694575683,0.0
-0.2735261658097546,-0.2031177085262473,-0.3088653593814632,0.0
-0.1937212287818459,0.5187515786599936,-0.227508405760919,0.0
-0.1613678759326945,0.1318673855274982,-0.227508405760919,0.0
-0.4201946987259115,0.9732618705920708,-0.2322384612039738,0.0
-0.4337522942055554,0.440431120050244,-0.1388987004610237,0.0
-0.6368080992302341,-0.0379842114574995,-0.3668873728162701,0.0
-0.3209777499885107,0.3803539811166619,-0.2016507693388854,0.0
-0.4470017625152084,0.3372620018815787,-0.3813928761749721,0.0
-0.2867756341194075,1.334039244187984,-0.3776088318205275,0.0
-0.2353183967307564,0.7222589550475738,-0.0512350062497391,0.0
-0.4852095315942038,-0.1889634087774976,-0.4441449450528333,0.0
-0.1604434944227185,-0.0348388115133329,-0.1644409998535203,0.0
-0.0917311355145185,0.1082768859462483,-0.2347611574402698,0.0
-0.1613678759326945,-0.1052957702626654,0.0149857699530292,0.0
-0.6022978561911385,0.1284074455889147,-0.5608196459815206,0.0
0.0019395241630266,0.4806922393355768,-0.1808385253894439,0.0
-0.1447290087531303,-0.7051235396152407,-0.2010200952798115,0.0
-0.0735516324849961,0.6049355371301587,-0.2060654877524033,0.0
-0.0661565804051899,0.6052500771245759,-0.1994434101321265,0.0
-0.3634992994473973,-0.0584293110945825,-0.1297539266044509,0.0
-0.1638328932926299,0.5134043987549097,-0.2905758116683176,0.0
-0.2350102695607641,-0.1880197887942475,-0.622625703770772,0.0
-0.1000505691043007,0.013600347626833,-0.0824533721739016,0.0
-0.349941703967752,0.8622292525629883,-0.0092951813213191,0.0
-0.3379247443380672,0.4124370605471619,-0.1439440929336156,0.0
-0.2556547899502231,-0.1266844898829983,-0.3366150179807187,0.0
-0.0501339675656091,0.3731195612450779,-0.0512350062497391,0.0
0.0216596630425097,1.1037959682749852,-0.4141879272468194,0.0
-0.0760166498449315,0.5498910381072432,0.0793145239785752,0.0
-0.1564378412128237,0.4234459603517439,-0.5166724618463421,0.0
-0.6685451977394031,0.5848049774874923,-0.3053966520565563,0.0
-0.3188208597985676,0.390733800932411,-0.4914454994833827,0.0
-0.2214526740811188,-0.1128447301286653,-0.2467439645626755,0.0
-0.2608929518400865,0.1164549258010812,-0.1713784145033341,0.0
-0.0476689502056737,0.4045735606867448,-0.2994052484953534,0.0
-0.406637103246266,0.1535706451422477,-0.4510823597026475,0.0
-0.2310046163508692,-0.3094322266390795,-0.2363378425879548,0.0
-0.3912307447466701,0.708104655298824,-0.417341297542189,0.0
-0.2069706970914987,0.6502292963261581,-0.1634949887649092,0.0
-0.114532546093922,-0.0659782709605825,-0.2502126718875824,0.0
-0.2479516107004245,0.3212204621663287,-0.2268777317018449,0.0
-0.2476434835304335,0.2183658839920806,-0.641545925542991,0.0
-0.5120165953835021,0.4555290397822438,-0.3053966520565563,0.0
0.3482744632339494,-0.133604369760165,-0.274493623161931,0.0
-0.2747586744897228,0.4555290397822438,-0.5403227390616169,0.0
0.0842094785508706,-0.4931235833784104,-0.1445747669926897,0.0
-0.1299389045935179,0.606822777096659,-0.2158409356680501,0.0
-0.2507247552303523,0.2337783437184975,-0.1511968446129665,0.0
-0.3517904669877037,-0.0845361306311656,-0.0319994474479826,0.0
-0.4278978779757088,1.059445829062236,-0.4731559517702374,0.0
-0.5468349655925953,0.692692195572407,-0.2404372239719357,0.0
-0.0427389154858029,0.0532323869233329,-0.1902986362755537,0.0
-0.248567865040408,-0.1713491690901644,-0.2022814433979595,0.0
-0.4956858553739278,0.2683777431043294,-0.4438296080232971,0.0
-0.4836688957442419,0.5067990588721599,-0.2773316564277639,0.0
-0.3598017734074936,0.1737012047849141,0.1032801382233873,0.0
-0.6309536830003836,-0.5988090215024091,0.1114789009913488,0.0
-0.1213113438337433,0.4545854197989937,0.0881439608056116,0.0
-0.6321861916803608,0.3419801017978282,-0.2259317206132339,0.0
-0.0556802566254634,0.531962258425493,-0.4901841513652341,0.0
-0.1958781189717901,-0.2663402474039965,-0.3318849625376637,0.0
-0.2596604431601181,0.7694399542100734,-0.0647944985198299,0.0
-0.3120420620587451,0.4797486193523266,-0.2685022196007281,0.0
-0.6968928973786636,0.8663182724904048,-0.3274702441241459,0.0
-0.595519058451321,0.6187752968844912,-0.3675180468753437,0.0
-0.7310950132477615,0.0400217071578334,0.683815609600993,0.0
-0.3625749179374214,-0.0018121120995838,0.1225156970251438,0.0
-0.7018229320985344,0.893368712010238,0.1187316526706992,0.0
-0.0045311464068049,-0.5167140829596603,0.0985500827803316,0.0
-0.3924632534266371,0.313986042294746,-0.0572264098109421,0.0
-0.4571699591249423,0.708733735287657,-0.4826160626563462,0.0
-0.0236350309463033,0.5618435578950755,-0.2089035210182363,0.0
-0.5061621791536643,-0.1273135698718317,-0.2284544168495298,0.0
-0.0898823724945679,1.0481223892632368,-0.1918753214232386,0.0
-0.4531643059150463,1.6262468990010563,-0.1969207138958305,0.0
-0.1767742344322904,-0.25470226761058,-0.4302701157532063,0.0
-0.0581452739853988,0.7861105739141564,0.0288605992526562,0.0
-0.6593013826396438,-0.1087557102012485,-0.0156019219120596,0.0
-0.2365509054107235,1.3614042237022346,-0.5337006614413401,0.0
-0.8367826325549925,1.1019087283084852,-0.2457979534740645,0.0
-0.3135826979087044,-0.4283283445285776,-0.3076040112633153,0.0
0.2623069828062028,0.0513451469568325,-0.319271481356184,0.0
-0.0119261984866098,0.0110840276714997,-0.0219086625027988,0.0
-0.5154059942534109,1.2000452065664808,-0.4785166812723654,0.0
-0.0211700135863679,-0.4248684045899941,-0.2773316564277639,0.0
0.1587762536889161,-0.9001383361535721,-0.5261325727324523,0.0
-0.2963275763891566,0.5291313984757425,-0.1193478046297302,0.0
-0.7104504928582986,0.2293747837966639,-0.6469066550451203,0.0
0.0734250276011531,-0.2767200672197465,-0.5762711604288338,0.0
-0.6670045618894412,0.5618435578950755,-0.2111108802249953,0.0
-0.4605593579948537,0.5360512783529094,-0.4608578076182938,0.0
0.4336256893217124,0.0749356465380824,-0.6059128412053114,0.0
-0.5237254278432032,-1.2744409295093997,0.1758076550168962,0.0
-0.7027473136085011,-0.6604588604080743,-0.7121814201592775,0.0
-0.4457692538352413,0.5914103173702421,-0.3104420445291482,0.0
-0.6583770011296639,1.3148523045285718,-0.4094578718037637,0.0
-0.3542554843476392,-0.133604369760165,0.0594482911177451,0.0
-0.5295798440730409,-0.2125539083587473,-0.5709104309267043,0.0
0.2351917918469135,0.2227694439139141,-0.4397302266393151,0.0
0.0241246804024451,0.2136477840758298,0.3101412295996552,0.0
-0.3835275654968716,-0.0669218909438325,0.4230318861738991,0.0
-0.3431629062279292,1.43563566238457,-0.6040208190280891,0.0
0.127963536689723,1.427457622529732,-0.2943598560227615,0.0
0.2398136993967919,0.3973391408151621,-0.2808003637526708,0.0
0.4043536081724801,1.1597840872811522,-0.1319612858112099,0.0
0.030287223802283,0.0522887669400827,-0.7566439413239947,0.0
-0.6488250588599199,0.4247041203294112,-0.1206091527478781,0.0
-0.4081777390962256,0.5700215977499097,0.1408052447382891,0.0
-0.4260491149557582,0.0054223077720001,0.0480961580544126,0.0
-0.6303374286604013,-0.5519425623343265,-0.6122195817960506,0.0
-0.3397735073580192,-0.1565657893525813,-0.0900214608827894,0.0
-0.381986929646912,0.6219206968286588,0.2622100011100321,0.0
-0.4288222594856847,0.6832559957399081,-0.6172649742686426,0.0
0.0725006460911772,0.4939029191010763,-0.1666483590602792,0.0
9.076114307474908e-05,0.348899981674995,-0.363418665491363,0.0
-0.5375911504928358,-0.0392423714351662,-0.2555734013897114,0.0
-0.5400561678527649,0.8581402326355719,-0.3615266433141407,0.0
-0.3693537156772426,0.8889651520884045,-0.4750479739474584,0.0
-0.2211445469111276,0.73295331485774,0.2704087638779935,0.0
0.1923621152180357,1.2922054249305654,0.1584641183923607,0.0
0.2875734107455404,0.2457308635063297,-0.2473746386217495,0.0
0.0090264490728403,1.492252861379566,-1.0237344053418276,0.0
-0.5992165844912144,0.7046447153602405,0.1994579322321696,0.0
0.0355253856921461,1.5142706609887275,-0.2877377784024847,0.0
-0.8802285635238498,-0.4236102446123282,-0.6645655286991919,0.0
-0.5289635897330588,0.0444252670796657,0.042104754493211,0.0
-0.5634738327721543,0.6857723156952414,0.0282299251935826,0.0
-0.6170879603507509,0.9131847316584888,-0.7323629900496451,0.0
-0.1552053325328554,1.4032380429596532,-0.7664193892396409,0.0
-0.2242258186110466,0.4744014394472443,0.2259462427132776,0.0
-0.0621509271952938,0.6197189168677414,-0.3722481023183994,0.0
-0.2910894144992948,0.6791669758124917,0.2527498902239219,0.0
-0.453780560255031,0.5939266373255754,-0.9001222897633262,0.0
0.1073190163002638,-0.1883343287886641,-0.4570737632638505,0.0
-0.2719855299597952,1.0698256488779865,-0.5794245307242033,0.0
-0.2205282925711441,1.0323953895424027,-0.5516748721249479,0.0
-0.1311714132734849,0.4287931402568277,-0.5936146970533679,0.0
-0.0584534011553913,0.541712998252409,-1.0174276647510871,0.0
-0.3443954149078976,0.6159444369347421,-0.8354781987082427,0.0
-0.4235840975958215,-0.6714677602126575,-0.4031511312130245,0.0
-0.0895742453245756,-0.6724113801959077,-0.2855304191957257,0.0
-0.5403642950227625,2.0628284112513877,0.0067870071850677,0.0
-0.0834117019247377,-0.0257171516752496,-0.4372075304030191,0.0
0.2395055722268007,-0.3691948255782457,-0.2111108802249953,0.0
-0.5665551044720785,0.0268110273923325,-0.4545510670275546,0.0
-0.2963275763891566,-0.8608208368514881,-0.0928594941486229,0.0
-0.3437791605679141,0.4111789005694946,-0.6715029433490062,0.0
0.0912964034606844,-0.2946488469014968,-0.2426445831786945,0.0
-0.6469762958399733,0.0617249667725829,-0.1571882481741694,0.0
-0.6072278909110094,-0.1779545089729143,-0.4066198385379316,0.0
-0.2935544318592301,-0.3846072853046614,-0.3599499581664558,0.0
-0.5221847919932413,0.7609473743608233,-0.467795222268108,0.0
-0.1746173442423461,0.0827991463984982,-0.2625108160395252,0.0
-0.100358696274293,0.5948702573088255,0.0212925105437684,0.0
-0.2035812982215875,1.0600749090510688,-0.4523437078207948,0.0
-0.0895742453245756,0.1658377049244971,-0.076777305642236,0.0
-0.0489014588856408,0.5863776774595755,-0.0077184961736343,0.0
-0.0122343256566023,-0.1141028901063319,-0.7065053536276119,0.0
-0.0205537592463844,0.2683777431043294,-0.2319231241744368,0.0
-0.2935544318592301,1.0292499895982363,-0.3675180468753437,0.0
-0.115765054773889,-0.3094322266390795,-0.3747707985546954,0.0
-0.052907112095537,-0.0845361306311656,0.0275992511345089,0.0
0.0564780332515964,0.3174459822333295,0.2032419765866141,0.0
-0.2291558533309174,1.4916237813907347,-0.2019661063684224,0.0
-0.3021819926190034,0.1337546254939985,0.6194868555754456,0.0
-0.2519572639103194,-0.0521385112062493,-0.0077184961736343,0.0
-0.1552053325328554,0.1960335443884967,-0.270078904748413,0.0
-0.2689042582598761,-0.0489931112620827,-0.2994052484953534,0.0
-0.3770568949270412,0.0415944071299165,0.5816464120310064,0.0
-0.2442540846605221,0.079339206459916,-0.1710630774737971,0.0
-0.4020151956963878,0.6184607568900754,-0.1619183036172243,0.0
-0.5597763067322481,0.3816121410943279,0.1802223734304131,0.0
-0.4633325025247802,-0.4273847245453275,-0.0219086625027988,0.0
0.0829769698709023,1.5498136803578162,-0.9452154849871158,0.0
0.3562857696537392,0.5313331784366601,0.6964290907824727,0.0
-0.9504815582820184,0.9333152913011536,0.1445892890927337,0.0
-0.2162145121912568,-1.4103222070973978,-0.5403227390616169,0.0
-0.4075614847562421,0.2205676639529967,-0.4220713529852434,0.0
-0.1210032166637522,0.2211967439418297,-0.2246703724950859,0.0
0.1245741378198117,0.5772560176214924,0.120939011877459,0.0
-0.1453452630931138,-0.0367260514798329,-0.3088653593814632,0.0
-0.5150978670834262,0.0450543470685,0.0991807568394066,0.0
-0.1666060378225564,0.4133806805304107,-0.1524581927311145,0.0
-0.2525735182503043,0.7552856544613238,-0.27039424177795,0.0
-0.2796887092095936,0.4111789005694946,-0.2066961618114773,0.0
-0.3887657273867348,1.5979382995035647,-0.1647563368830572,0.0
-0.2060463155815229,0.2797011829033299,-0.126285219279544,0.0
-0.2303883620108856,1.1107158481521522,0.0222385216323795,0.0
0.0826688427009098,-0.3607022457289957,-0.1240778600727851,0.0
-0.23593465107074,0.3290839620267458,-0.4655878630613496,0.0
-0.4134159009860887,0.5413984582579933,-0.2331844722925848,0.0
-0.6479006773499402,0.3227931621384119,-0.5308626281755068,0.0
0.0715762645812012,0.2878792227581628,-0.1313306117521359,0.0
-0.0103855626366503,-0.6022689614409925,-0.1499354964948185,0.0
-0.0341113547260284,0.5533509780458267,-0.1650716739125942,0.0
-0.4556293232749829,0.3199623021886628,0.073007783387836,0.0
0.0065614317129049,-0.3893253852209121,0.1278764265272732,0.0
-0.3129664435687209,0.6190898368789084,-0.6270404221842902,0.0
-0.239015922770659,0.0975825261360821,-0.5441067834160601,0.0
0.050931744191742,0.775101674109573,0.0465194729067278,0.0
-0.1860180495320485,0.4445201399776605,-0.1407907226382457,0.0
-0.6032222377011183,2.29967702704714,-0.8061518549613025,0.0
-0.5603925610722431,-0.4468862041991608,0.0629169984426522,0.0
-0.4257409877857658,-0.1782690489673309,-0.5444221204455976,0.0
-0.2217608012511111,0.7238316550196568,-0.272286263955172,0.0
-0.1706116910324513,1.4214813626358116,-0.3422910845123845,0.0
-0.7514314064672268,0.4155824604913282,-0.772410792800844,0.0
-0.3373084899980825,-0.3912126251874111,-0.272601600984709,0.0
-0.4328279126955796,-0.0241444517031664,0.2007192803503182,0.0
-0.4386823289254262,0.7046447153602405,-0.862281846218887,0.0
-0.5181791387833374,-0.8674261767342393,-0.4072505125970053,0.0
-0.3785975307770008,0.9015467518650708,-0.2041734655751814,0.0
-0.6244830124305636,0.525042378548326,-0.1600262814400023,0.0
-0.6784052671791447,0.4797486193523266,-0.5141497656100462,0.0
-0.3151233337586652,-0.700719979693407,0.1370212003838458,0.0
-0.9027218469332596,0.4599325997040774,-0.1912446473641647,0.0
-0.4587105949749018,-0.0326370315524163,-0.1363760042247278,0.0
-0.4821282598942925,-0.2804945471527459,-0.3221095146220169,0.0
-0.1496590434730011,1.6350540188447262,-0.0029884407305799,0.0
-0.113608164583946,-1.3332599084653156,-0.2656641863348952,0.0
-0.3961607794665409,0.264288723176913,-0.275754971280079,0.0
0.1067027619602803,-0.7019781396710744,0.2278382648905,0.0
-0.3394653801880268,0.5077426788554101,-0.3867536056771001,0.0
-0.5144816127434441,0.8153627933949057,-0.8439922985057418,0.0
-0.4932208380139987,0.3897901809491622,-0.0029884407305799,0.0
-0.7837847593163784,0.692063115583574,-0.1452054410517635,0.0
0.3655295847534972,-0.6041562014074914,-0.0197013032960403,0.0
0.2330349016569692,-1.1149691523401517,-0.519195158082638,0.0
-0.1037480951442044,1.5293685807207276,-0.5579816127156885,0.0
-0.3708943515272034,0.0840573063761655,-0.1701170663851861,0.0
0.2542956763864119,-0.4387081643443279,-0.2054348136933294,0.0
-0.3397735073580192,0.187540964539248,-0.1855685808324987,0.0
-0.1736929627323715,0.525042378548326,-0.0086645072622454,0.0
-0.0803304302248175,0.5294459384701597,0.151842040772084,0.0
-0.2498003737203765,1.445386402211481,0.0865672756579268,0.0
-0.4186540628759507,0.752140254517156,-0.3158027740312772,0.0
-0.1958781189717901,0.7719562741654067,-0.0487123100134431,0.0
-0.3434710333979215,1.5863003197101455,-0.4151339383354306,0.0
-0.2155982578512733,1.4667751218318106,-0.3536432175757164,0.0
-0.6904222268088306,-0.6060434413739918,-0.1808385253894439,0.0
-0.2005000265216685,-0.9177525758409052,-0.1404753856087088,0.0
-0.0639996902152456,1.3236594243722286,-0.620103007534476,0.0
-0.0085367996166998,0.9122411116752386,-0.0051957999373383,0.0
0.3686108564534162,-0.1666310691739145,-0.0802460129671431,0.0
0.3991154462826169,0.4832085592909101,-0.4945988697787523,0.0
-0.4771982251744218,-0.6189395811450755,-0.5299166170868955,0.0
-0.7501988977872626,1.265469525405147,0.3233853848402085,0.0
-0.4161890455160166,-0.464500443886494,-0.2054348136933294,0.0
-0.1955699918017978,-0.1354916097266648,-0.5352773465890249,0.0
-0.543137439552689,-0.6799603400619076,-0.3230555257106279,0.0
-0.2300802348408933,1.0408879693916526,-0.1202938157183411,0.0
-0.919052586942834,0.2567397633109131,-0.1685403812375012,0.0
-0.8518808638846025,0.834549733054322,-0.5472601537114298,0.0
-0.5314286070930007,0.5687634377722423,-0.4271167454578353,0.0
-0.3557961201975986,-0.1515331494419147,-0.1354299931361167,0.0
-0.4756575893244598,1.0644784689729023,-0.1407907226382457,0.0
-0.1194625808137928,0.8383242129873226,-0.2407525610014727,0.0
-0.1613678759326945,1.6973329377392334,-0.1057883123596394,0.0
-0.039657643785884,0.3507872216414953,0.1572027702742134,0.0
-0.2898569058193264,1.0908998285039029,-0.3233708627401649,0.0
-0.0214781407563603,0.5105735388051607,-0.6182109853572537,0.0
-0.5077028150036135,0.3963955208319119,-0.1120950529503793,0.0
-0.0211700135863679,1.1421698475938178,-0.4069351755674677,0.0
0.4249981285619392,1.2616950454721567,-0.3265242330355349,0.0
-0.4543968145950145,0.1683540248798304,-0.2789083415754488,0.0
-0.2470272291904486,0.0453688870629158,-0.3315696255081268,0.0
0.015805246812663,-0.7019781396710744,-0.2852150821661887,0.0
0.1264229008397636,-0.4767675036687433,-0.580055204783277,0.0
-0.1582866042327743,0.1828228646229972,-0.4069351755674677,0.0
-0.0045311464068049,0.4432619799999945,-0.3381917031284037,0.0
-0.214365749171305,-0.2059485684759973,-0.7024059722436311,0.0
-0.6753239954792206,1.2620095854665658,-0.6128502558551258,0.0
-0.4084858662662179,-0.2927616069349965,0.2281536019200361,0.0
0.1273472823497395,-0.0738417708209991,-0.5652343643950389,0.0
-0.0877254823046237,0.5218969786041598,-0.4807240404791252,0.0
-0.2855431254394405,0.5741106176773261,-0.6292477813910488,0.0
-0.3943120164465891,0.6983539154719081,-0.2539967162420263,0.0
-0.190639957081927,1.27553480522648,-0.4958602178969009,0.0
0.0312116053122589,0.8471313328309885,-0.2798543526640598,0.0
-0.4642568840347561,2.4192022249254617,-0.1947133546890717,0.0
-0.6725508509492941,1.6608462983868908,-0.2861610932547997,0.0
0.2096172367375835,-0.2336280879846637,-0.4387842155507052,0.0
-0.4725763176245358,-0.0354678915021662,-0.3318849625376637,0.0
-0.7702271638367433,-0.0392423714351662,0.1111635639618113,0.0
-0.1490427891330175,-0.2477823877334135,-0.126285219279544,0.0
-0.01500747018653,1.688840357889973,-0.0193859662665029,0.0
-0.2565791714601992,0.0868881663259159,-0.4782013442428293,0.0
-0.0581452739853988,0.7618909943440735,-0.3530125435166424,0.0
0.469060313870784,-1.5499779646184006,0.2940590410932683,0.0
-0.2008081536916609,0.7228880350364068,0.2991044335658602,0.0
0.1433698951893189,-0.8652243967733217,0.2420284312196645,0.0
-1.14768294707685,0.6464548163931588,0.2700934268484561,0.0
-0.1835530321721131,0.925766331435154,-0.45076702267311,0.0
-0.536666768982856,0.5555527580067429,-0.1143024121571383,0.0
-0.1071374940141157,-0.2072067284536639,-0.1228165119546371,0.0
-0.3046470099789387,0.9905615702849866,-0.2927831708750766,0.0
-0.6956603886986862,-0.6258594610222423,-0.6708722692899312,0.0
-0.5542300176723949,1.0154102298439038,-0.2297157649676779,0.0
-1.03182713115988,0.4690542595421604,-0.0688938799038107,0.0
-0.1850936680220726,0.5429711582300764,-0.3126494037359072,0.0
0.1427536408493354,0.3982827607984109,-0.2161562726975871,0.0
-0.3847600741768399,2.1603358095205607,-0.7175421496614068,0.0
-0.1009749506142766,0.0780810464822487,-0.2281390798199929,0.0
-0.527114826713112,-1.209645690659568,0.1420665928564377,0.0
-0.5348180059629093,1.791065856075391,-0.9061136933245292,0.0
0.1923621152180357,-0.0162809518427498,-0.4227020270443184,0.0
0.2761727054558394,0.9128701916640716,0.084990590510242,0.0
-0.1388745925232835,0.3350602219206625,-0.5434761093569864,0.0
-0.6435868969700516,0.0091967877049995,-0.5106810582851392,0.0
-0.3166639696086246,-1.1753608312681507,0.559888156992954,0.0
-0.1555134597028478,0.5744251576717418,-0.3337769847148858,0.0
-0.3194371141385511,1.0585022090789855,-0.0528116913974252,0.0
0.236732427696873,-0.7645715985599897,0.0194004883665474,0.0
-0.2747586744897228,0.7993212536796559,-0.363418665491363,0.0
-0.1604434944227185,1.165445807180652,-0.7780868593325097,0.0
0.1221091204598762,0.3831848410664111,0.0011109406534008,0.0
-0.101283077784269,0.5571254579788261,0.1316604708817164,0.0
0.4860073082203406,0.3394637818424948,-0.6049668301167004,0.0
-1.0170370270002678,1.211054106371068,-0.5283399319392108,0.0
-1.0142638824703412,1.0698256488779865,-0.1010582569165845,0.0
-0.6676208162294234,0.6294696566946587,-0.1701170663851861,0.0
-0.4278978779757088,-0.2587912875379966,-0.7005139500664088,0.0
-0.1644491476326135,0.7401877347293239,-0.0083491702327079,0.0
-0.0162399788664971,1.274591185243239,-0.3176947962084991,0.0
0.0919126578006679,0.632615056638825,-0.3526972064871054,0.0
0.1778801382284144,-0.6192541211394913,-0.0061418110259495,0.0
-0.5665551044720785,0.716282695153657,-0.3183254702675732,0.0
-0.1638328932926299,-2.0368858759753845,-0.5106810582851392,0.0
-0.2747586744897228,0.3382056218648289,-0.2394912128833247,0.0
-0.1468858989430732,0.1142531458401651,0.2429744423082757,0.0
-0.5206441561432791,1.4334338824236528,-0.1360606671951908,0.0
-0.522492919163226,0.0123421876491671,-0.220886328140642,0.0
0.3769302900431983,-0.2276518280907471,-0.4646418519727384,0.0
-0.0744760139949708,1.1453152475379855,-0.0742546094059401,0.0
-0.0754003955049467,-0.6173668811729923,-0.1701170663851861,0.0
0.3263974341645232,0.7304369949024067,0.1824297326371729,0.0
-0.2282314718209413,0.95344585094382,-0.6633041805810433,0.0
-0.1829367778321283,0.7206862550754906,-0.4268014084282991,0.0
-0.1632166389526451,0.7964903937299066,-0.4573891002933867,0.0
-0.533585497282945,0.7172263151369072,-0.3467058029259025,0.0
-0.2494922465503841,-0.0335806515356663,0.0544028986451532,0.0
-0.624174885260566,0.1362709454493318,0.2861756153548429,0.0
0.4653627878308815,0.3885320209714948,-0.043351580511315,0.0
-0.404480213056323,-1.0740789530659858,-0.3996824238881174,0.0
-0.6124660528008777,0.2035825042544966,-0.2675562085121171,0.0
0.4012723364725611,-0.330506406264996,-0.2760703083096159,0.0
-0.9658879167816132,0.8971431919432387,-1.0237344053418276,0.0
-0.5782639369317667,-0.4037942249640776,-0.3690947320230285,0.0
-0.2362427782407312,0.3857011610217444,-0.2423292461491576,0.0
-0.1524321880029276,-0.0675509709326658,0.0991807568394066,0.0
-0.3610342820874618,0.9235645514742378,-0.3672027098458075,0.0
-0.6445112784800313,1.880080674495304,-0.4614884816773674,0.0
-0.1009749506142766,0.5737960776829089,-0.271340252866561,0.0
0.0247409347424287,0.5005082589838273,-0.1893526251869427,0.0
-0.5794964456117313,0.6181462168956582,-0.5567202645975399,0.0
-0.3268321662183574,-0.4446844242382447,-0.2536813792124893,0.0
-0.389073854556726,-0.105610310257082,-0.4782013442428293,0.0
-0.2473353563604412,0.8578256926411547,-0.2763856453391529,0.0
-0.436217311565491,-0.0354678915021662,0.044942787759043,0.0
0.2823352488556772,0.5288168584813268,-0.3908529870610823,0.0
0.3461175730440065,0.4473509999274109,-0.1619183036172243,0.0
-0.368737461337259,0.4130661405359949,-1.0436006382026577,0.0
-0.2840024895894797,0.96854377067582,0.1846370918439314,0.0
-0.8534214997345516,0.2284311638134137,-0.1102030307731574,0.0
-0.2069706970914987,-0.51482684299316,-0.3965290535927478,0.0
-0.1900237027419434,-0.4201503046737447,-0.1385833634314867,0.0
0.4924779787901709,0.7033865553825747,-0.2748089601914679,0.0
-0.4694950459246245,-0.3021978067674967,-0.6065435152643851,0.0
-0.4787388610243711,0.4171551604634113,-0.2325537982335109,0.0
-0.3970851609765169,0.7203717150810734,-0.1600262814400023,0.0
-0.4414554734553541,-0.1052957702626654,-0.2631414900985993,0.0
-0.480279496874333,-0.0115628519264999,-0.3769781577614539,0.0
-0.2162145121912568,1.4708641417592363,-0.561134983011058,0.0
-0.5440618210626688,-0.2018595485485807,-0.1694863923261121,0.0
-0.1108350200540182,0.298573582568329,-0.4785166812723654,0.0
-0.1231601068536951,-0.2018595485485807,0.0367440249910816,0.0
-0.3548717386876228,1.1541223673816512,-0.6021287968508668,0.0
-0.3373084899980825,-0.1480732095033315,0.0184544772779362,0.0
-0.4845932772542217,0.0356181472359998,-0.0023577666715049,0.0
0.1119409238501435,0.9370897712341544,0.3713166133298315,0.0
-1.465053932168528,0.681683295767825,0.0288605992526562,0.0
0.200989675977809,0.314615122283579,-0.3306236144195158,0.0
-0.5283473353930767,-0.6390701407877419,-0.3410297363942365,0.0
-0.724316215507944,0.9210482315189044,-1.0710349597723772,0.0
-0.2661311137299483,-0.5283520627530766,-0.5992907635850347,0.0
0.0614080679714673,-1.0033074543222376,-0.0465049508066846,0.0
-0.0809466845648023,0.0261819474034996,0.084990590510242,0.0
-0.5875077520315262,0.8043538935903225,-0.5299166170868955,0.0
-0.44237985496533,-0.6305775609384918,-0.3132800777949811,0.0
-0.5061621791536643,-0.5576042822338261,0.0938200273372772,0.0
-0.2279233446509503,1.1314754877836517,-0.1341686450179688,0.0
-0.3733593688871389,-0.2241918881521637,0.0471501469658028,0.0
-0.3317622009382282,-0.1537349294028313,0.005525659066919,0.0
-0.1397989740332595,-0.0996340503631654,-0.1347993190770428,0.0
-0.6269480297904925,1.2695585453325726,-0.4845080848335685,0.0
-0.0347276090660132,-0.0200554317757498,-0.5778478455765186,0.0
-0.5714851391919492,-1.337348928392732,-0.3277855811536829,0.0
-0.115765054773889,0.3378910818704117,-0.2284544168495298,0.0
0.0484667268318066,0.7452203746399905,0.137336537413382,0.0
-0.7039798222884784,0.6574637161977408,-0.0890754497941783,0.0
0.2450518612866551,0.9270244914128212,0.0089943663918261,0.0
-0.4050964673963065,1.1484606474821517,-0.7856549480413975,0.0
-0.2017325352016369,-0.1203936899946652,0.0357980139024704,0.0
-0.1890993212319674,0.2978658675808918,-0.6144269410028105,0.0
0.1621656525588274,1.2481698257122296,-0.4766246590951444,0.0
-0.8589677887944176,0.8367515130152395,-0.3407143993646996,0.0
-0.2214526740811188,0.1894282045057469,-0.7509678747923278,0.0
-0.211284477471386,-0.3956161851092447,0.1259844043500509,0.0
-0.0815629389047859,1.091843448487152,-0.124708534131859,0.0
-0.1629085117826539,0.926395411423988,-0.0269540549753907,0.0
-0.7206186894680378,0.0592086468172496,-0.2303464390267519,0.0
-0.2122088589813619,1.0896416685262356,-0.2259317206132339,0.0
-0.0442795513357625,0.5354221983640765,0.0143550958939555,0.0
-0.4272816236357252,-0.0103046919488325,0.1505806926539367,0.0
-0.5757989195718378,0.5174934186823261,0.1370212003838458,0.0
-0.23593465107074,0.5841758974986593,-0.0506043321906654,0.0
-0.1099106385440423,0.2271730038357464,-0.1972360509253676,0.0
-0.0760166498449315,0.347641821697329,-0.3246322108583128,0.0
-0.3776731492670248,0.3970246008207449,-0.3533278805461793,0.0
-0.2966357035591491,0.599588357225075,-0.5185644840235644,0.0
-0.1832449050021206,1.952110333216722,-0.2990899114658164,0.0
-0.2568872986301902,0.6983539154719081,-0.5220331913484703,0.0
0.1030052359203779,0.8288880131548224,-0.0670018577265897,0.0
-0.0596859098353584,0.9144428916361548,-0.1392140374905608,0.0
-0.4140321553260723,-1.315331128783567,0.3009964557430825,0.0
-0.7887147940362491,0.8902233120660717,-0.428378093575984,0.0
-0.6417381339501048,0.7260334349805743,-0.1612876295581503,0.0
-0.248567865040408,-0.5988090215024091,-0.221201665170179,0.0
-0.810899950275674,1.2944072048914832,-0.4463523042595931,0.0
-0.5434455667226866,1.0456060693079037,-0.2442212683263796,0.0
-0.4744250806444953,2.206887728694224,-0.1552962259969474,0.0
0.1054702532803133,-1.1212599522284852,-0.4227020270443184,0.0
-0.23593465107074,-0.640642840759825,0.1285071005863468,0.0
-0.381678802476921,1.337499184126565,-0.2060654877524033,0.0
-0.1277820144035736,1.7479738768403086,-0.3530125435166424,0.0
-0.3003332295990528,-0.1499604494698314,-0.3306236144195158,0.0
-0.1133000374139536,-1.2049275907433177,-0.391798998149692,0.0
-0.1829367778321283,0.5263005385259935,0.135444515236161,0.0
-0.0904986268345515,0.682941455745491,-0.322424851651554,0.0
-0.9101168990130722,0.5945557173144084,-0.0752006204945512,0.0
0.0983833283704982,-1.3159602087723996,0.1253537302909772,0.0
-0.0670809619151646,-0.3015687267786624,-0.2429599202082316,0.0
-0.1644491476326135,1.0493805492409027,-0.4744172998883847,0.0
-0.0131587071665782,-0.6595152404248241,0.0118323996576595,0.0
-0.2467191020204577,-0.0081029119879164,-0.1023196050347325,0.0
0.0133402294527276,0.187540964539248,0.0991807568394066,0.0
-0.3487091952877849,0.2655468831545803,-0.7525445599400127,0.0
0.5584171931684418,1.1459443275268182,0.008048355303215,0.0
-0.9507896854520032,1.100965108325236,-0.2473746386217495,0.0
-0.4688787915846295,1.786033216164724,-0.620103007534476,0.0
-0.15274031517292,1.82409255548914,-0.0241160217095586,0.0
-0.6768646313291828,0.8656891925015718,-0.6702415952308575,0.0
-0.2334696337108047,-0.3735983855000779,-0.5920380119056831,0.0
-0.6016816018511564,1.3516534838753105,-0.3012972706725754,0.0
-0.298792593749092,0.800264873662906,0.0755304796241319,0.0
-0.311117680548769,0.934258911284404,-0.7011446241254825,0.0
-0.0636915630452545,0.7118791352318233,-0.9379627333077654,0.0
-0.1188463264738079,0.4030008607146617,-0.5873079564626287,0.0
-0.2719855299597952,0.2089296841595804,-0.6500600253404899,0.0
-0.455013068934998,0.835178813043155,-0.4047278163607093,0.0
-0.4608674851648449,-0.6821621200228252,-0.0629024763426076,0.0
-0.3080364088488501,0.4508109398659944,-0.0856067424692725,0.0
-0.1940293559518382,0.7285497549359076,0.0755304796241319,0.0
-0.6972010245486482,-0.98506413464607,-0.2483206497103605,0.0
-0.1662979106525653,0.8336061130710718,-0.8906621788772161,0.0
1.6109796058608572,2.0628284112513877,1.1593438501427848,0.0
0.1606250167088667,-0.0587438510889993,-0.1020042680051955,0.0
-0.8124405861256361,1.1402826076273187,-0.0269540549753907,0.0
0.3556695153137556,0.6895467956282407,-0.1723244255919451,0.0
-0.0433551698257865,-0.8491828570580717,0.6671027470355312,0.0
-0.3034145012989717,2.1405197898723034,0.376046668772886,0.0
-0.8278469446252307,1.716834417393055,0.4829459217859269,0.0
-0.3684293341672681,0.7367277947907405,0.151842040772084,0.0
0.3427281741740951,0.9606802708154042,0.779047392521164,0.0
0.0555536517416205,-0.3500078859188281,-0.3539585546052533,0.0
-0.2242258186110466,0.146336225270665,0.0408434063750623,0.0
-0.3764406405870577,-0.2050049484927474,0.2190088280634635,0.0
-0.6004490931711918,0.6722470959353248,0.2350910165698503,0.0
-0.1515078064929529,1.411101542820069,0.4892526623766674,0.0
-0.3292971835782927,-0.5830820217815762,0.5346611946299945,0.0
-0.4790469881943685,-0.0518239712118327,0.0171931291597876,0.0
-0.1986512635017167,1.5362884605979024,-0.5296012800573581,0.0
-0.2913975416692858,0.4828940192964929,0.0260225659868241,0.0
-0.5228010463332234,1.0723419688333198,0.5636722013473973,0.0
-0.3940038892765968,1.0248464296764026,-0.3883302908247863,0.0
-0.286467506949415,-0.1373788496931649,0.0575562689405228,0.0
-0.1613678759326945,0.5439147782133266,0.9698262953910448,0.0
-0.1589028585727591,0.8128464734395724,0.1436432780041225,0.0
-0.2085113329414581,0.9436951111169042,0.0685930649743177,0.0
-0.6386568622501808,0.2111314641204965,-0.3999977609176549,0.0
-0.2923219231792618,0.363683361412579,0.3908675091611255,0.0
-0.2516491367403284,1.1258137678841518,-0.5545129053907814,0.0
-0.1536646966828959,0.172128504812831,-0.1839918956848138,0.0
-0.4861339131041836,-0.9696516749196544,-0.1146177491866752,0.0
-0.6100010354409358,-1.3760373477059815,0.9505907365892884,0.0
-0.5298879712430385,1.3560570437971455,0.0332753176661744,0.0
-0.906419372973166,0.6043064571413257,0.8045896919136609,0.0
-0.6026059833611361,0.8329770330822389,1.2700271475102638,0.0
-0.2248420729510302,0.3957664408430776,-0.0632178133721451,0.0
-0.6106172897809182,1.220804846197979,0.3132945998950248,0.0
-0.1776986159422664,1.4073270628870655,0.2675707306121602,0.0
-0.500924017263796,0.6996120754495739,0.4520428928913019,0.0
-0.4445367451552729,-0.532126542686076,0.1310297968226428,0.0
-0.3514823398177114,1.7070836775661444,0.0471501469658028,0.0
-0.5841183531616173,-0.0115628519264999,-0.3053966520565563,0.0
-0.3049551371489313,0.8581402326355719,0.8291859802175469,0.0
-0.495377728203943,0.5014518789670762,0.2130174245022604,0.0
-0.2571954258001828,0.4215587203852449,0.1130555861390336,0.0
-0.934150818272444,1.0053449500225706,0.0654396946789481,0.0
-0.927063893362629,1.45073358211657,0.3158172961313207,0.0
-0.6266399026204948,0.4976773990340769,0.0544028986451532,0.0
-0.2202201654011517,-0.0977468103966655,-0.269763567718876,0.0
0.1926702423880282,-0.2128684483531639,0.1840064177848577,0.0
-0.4463855081752249,0.7216298750587408,-0.4753633109769958,0.0
-0.0063799094267555,0.8270007731883221,0.1553107480969911,0.0
-0.1160731819438814,-0.4003342850254954,-0.0130792256757636,0.0
0.0392229117320486,0.6602945761474913,-0.8689039238391637,0.0
-0.150583424982977,-0.0461622513123328,0.3145559480131734,0.0
-0.385068201346831,0.3171314422389123,0.7276474567066339,0.0
-0.4661056470547028,0.3633688214181618,0.0291759362821937,0.0
-0.0331869732160538,1.7464011768682233,0.3205473515743764,0.0
-0.331454073768237,-0.5396755025520757,0.3558650988825197,0.0
0.2894221737654923,0.6779088158348244,-0.1171404454229712,0.0
-0.2787643276996177,0.2243421438859973,0.4492048596254698,0.0
-0.3462441779278494,0.8150482534004887,0.1565720962151398,0.0
-0.2809212178895606,0.8914814720437378,-0.0865527535578823,0.0
-0.8571190257744581,0.4489236998994941,-0.4195486567489475,0.0
-0.4094102477761938,1.223635706147728,-0.2126875653726803,0.0
-0.0575290196454153,1.01006304993882,-0.5570356016270773,0.0
-0.4516236700650869,0.2778139429368296,0.5460133276933257,0.0
-0.0621509271952938,-0.1458714295424148,-0.1849379067734248,0.0
-0.0436632969957789,0.7807633940090726,0.4056883495493636,0.0
-0.5394399135127825,0.0428525671075825,0.095396712484962,0.0
-0.9017974654232928,1.1044250482638194,-0.0644791614902938,0.0
-0.8697522397441261,0.4504963998715772,0.3397829103761328,0.0
-0.4947614738639608,0.7043301753658234,-0.3662566987571964,0.0
-0.4106427564561609,0.1189712457564145,0.0531415505270045,0.0
-0.3887657273867348,0.9732618705920708,-0.2893144635501696,0.0
-0.5967515671312855,0.2406982235956631,-0.0376755139796482,0.0
-0.4235840975958215,-0.0659782709605825,0.1455353001813448,0.0
-0.5372830233228385,0.5706506777387426,-0.0026731037010424,0.0
-0.0606102913453342,0.7747871341151572,0.5122722655328672,0.0
0.1439861495293037,0.6810542157789907,0.1281917635568094,0.0
-0.2380915412606829,0.4756595994249102,0.6443984809088676,0.0
-0.2525735182503043,0.230947483768747,0.1017034530757026,0.0
0.1045458717703373,0.4561581197710768,0.17423096986921,0.0
-0.3034145012989717,0.9817544504413208,0.2823915710003996,0.0
-0.2383996684306755,1.0890125885374022,0.2767155044687341,0.0
-0.573333902211896,-0.0716399908600824,-0.2284544168495298,0.0
-0.6552957294297529,0.7370423347851564,0.2439204533968868,0.0
-0.1567459683828148,-0.2153847683084972,-0.0442975915999262,0.0
0.3689189836234086,1.3397009640874822,0.2524345531943845,0.0
0.0265896977623805,1.26924400533815,1.1148813289780597,0.0
-0.0815629389047859,1.4035525829540625,0.5302464762164764,0.0
-0.3973932881465079,1.167018507152735,0.9357698962010502,0.0
-0.0328788460460613,1.211997726354323,0.6034046670690587,0.0
-0.1163813091138725,0.9996832301230696,0.6421911217021091,0.0
-0.0603021641753432,1.0289354496038192,0.5469593387819367,0.0
-0.4654893927147207,0.9204191515300714,0.0793145239785752,0.0
-0.5301960984130234,-0.1625420492464979,-0.1650716739125942,0.0
-0.5908971509014348,0.8229117532609056,0.3615411654141853,0.0
0.6930687664549129,0.7706981141877394,0.0376900360796927,0.0
-0.9957762522708228,1.0059740300114035,0.7721099778713498,0.0
0.1390561148094329,1.1226683679399856,0.376046668772886,0.0
-0.0732435053150037,0.8792144122614884,-0.0401982102159441,0.0
0.1048539989403284,0.9723182506088208,0.1127402491094975,0.0
-0.0824873204147617,0.9556476309047376,0.2817608969413261,0.0
0.0681868657112899,-0.3267319263319954,-0.4857694329517171,0.0
0.0013232698230417,-1.0206071540151531,-0.3744554615251579,0.0
-0.2833862352494962,0.800264873662906,0.4744318219884292,0.0
-0.5345098787929118,-0.1600257292911646,-0.0988508977098256,0.0
0.4046617353424725,1.7592973166393056,0.6330463478455366,0.0
-0.429130386655677,0.3026626024957455,-0.0547037135746461,0.0
-0.1817042691521612,0.1246329656559155,0.0556642467633005,0.0
-0.2556547899502231,0.606822777096659,0.4309153119123231,0.0
-0.3634992994473973,0.9713746306255704,0.4419521079461181,0.0
-0.4750413349844776,0.666270836041408,0.1467966482994921,0.0
-0.7055204581384278,0.5313331784366601,0.1732849587806003,0.0
-0.6361918448902519,0.4744014394472443,0.4488895225959323,0.0
-0.6799459030291068,0.2850483628084124,-0.4085118607151539,0.0
-0.3881494730467512,0.6061936971078247,0.15436473700838,0.0
0.3612158043736099,0.0494579069903323,0.0067870071850677,0.0
-0.8250738000953042,0.5184370386655763,0.1300837857340316,0.0
-0.1533565695129035,0.5313331784366601,0.4801078885200948,0.0
-0.2787643276996177,0.8232262932553228,0.2193241650930009,0.0
-0.3973932881465079,1.0339680895144858,0.6037200040985963,0.0
-0.6204773592206597,0.3611670414572457,-0.1007429198870475,0.0
-0.4876745489541457,0.824169913238573,0.3464049879964096,0.0
-0.4587105949749018,1.0311372295647367,0.542859957397956,0.0
-0.7954935917760795,0.0771374264989986,-0.1606569554990763,0.0
-0.6515982033898464,1.0154102298439038,0.2927976929751196,0.0
-0.800731753665935,0.5763123976382422,0.6311543256683143,0.0
-0.3610342820874618,1.4016653429875674,0.8960374304793888,0.0
-0.7585183313770419,0.3174459822333295,0.2313069722154071,0.0
-0.4528561787450551,0.548632878129576,0.000164929564791,0.0
-0.7184617992780935,0.2841047428251622,0.0197158253960836,0.0
-0.2417890673005868,1.0377425694474864,0.332214821667245,0.0
-1.6983061998524178,1.1657603471750675,0.5100649063261088,0.0
-0.9846836741511164,0.6496002163373251,-0.1228165119546371,0.0
0.1560031091589883,0.6429948764545753,0.2871216264434541,0.0
-1.1442935482069283,0.7980630937019899,0.2795535377345662,0.0
0.0250490619124197,-0.708268939559407,-0.1477281372880595,0.0
-0.5015402716037783,0.7678672542379903,0.3527117285871488,0.0
-0.406328976076275,0.3555053215577448,0.2388750609242949,0.0
-0.4990752542438492,0.5108880787995764,0.3899214980725143,0.0
-0.1659897834825729,0.4394875000669939,0.2571646086374402,0.0
-0.7612914759069684,0.1510543251869144,0.0282299251935826,0.0
-0.3715106058671869,0.7549711144669066,0.3114025777178025,0.0
-0.4525480515750628,0.7367277947907405,-0.2524200310943414,0.0
-0.5372830233228385,0.2406982235956631,0.3716319503593691,0.0
0.0016313969930341,1.134620887727819,0.4819999106973171,0.0
-0.0076124181067238,0.0180039075486667,-0.1474128002585226,0.0
-0.1410314827132266,0.9235645514742378,0.2688320787303088,0.0
-0.117921944963832,0.5788287175935755,0.1256690673205134,0.0
-0.0224025222663362,0.916959211591488,0.1253537302909772,0.0
0.0108752120927922,0.7055883353434907,0.5491666979886966,0.0
-0.237167159750707,-0.099948590357582,0.0241305438096018,0.0
-0.2393240499406513,0.9204191515300714,0.6671027470355312,0.0
0.1020808544104019,1.9895405925523055,0.7219713901749683,0.0
-0.6552957294297529,0.6653272160581579,-0.1480434743175966,0.0
-0.4439204908152894,0.6618672761195744,-0.1663330220307422,0.0
-0.0408901524658511,1.2151431262984809,0.6484978622928483,0.0
-0.3095770446988095,-0.1326607497769149,-0.0051957999373383,0.0
0.098075201200507,1.141226227610569,0.8660804126733749,0.0
-0.7055204581384278,0.2051552042265811,-0.0124485516166887,0.0
-0.8602002974743821,0.2199385839641637,-0.0704705650514955,0.0
-0.4319035311856035,0.2841047428251622,0.2372983757766087,0.0
-0.2630498420300294,1.043718829341403,0.1959892249072638,0.0
0.1390561148094329,-0.1974559886267475,-0.5586122867747622,0.0
-0.3628830451074123,0.9147574316305718,0.5002894584104624,0.0
0.0361416400321297,0.5826031975265762,-0.1243931971023221,0.0
-0.3040307556389552,0.4297367602400778,0.2051339987638364,0.0
-0.2528816454202955,0.8685200524513222,0.3344221808740035,0.0
-0.1382583381833,0.1202294057340818,-0.2111108802249953,0.0
-0.1037480951442044,0.743018594679073,0.2221621983588331,0.0
0.3753896541932388,0.8650601125127388,0.4870453031699077,0.0
0.6052525230072145,0.6643835960749077,0.2536959013125331,0.0
0.2074603465476406,0.7449058346455734,0.0635476725017259,0.0
0.2096172367375835,0.6206625368509915,0.6961137537529352,0.0
-0.51140034104352,0.2633451031936629,0.0294912733117312,0.0
-0.2119007318113695,1.3554279638083142,0.7894535144958853,0.0
-0.3212858771585031,1.1393389876440687,0.1467966482994921,0.0
-0.5563869078623392,0.5561818379955759,0.6525972436768305,0.0
-0.1163813091138725,0.8449295528700724,0.3363142030512258,0.0
0.3510476077638772,0.2633451031936629,0.0670163798266329,0.0
-0.3936957621066056,1.176454706985234,0.4192478418194546,0.0
-0.3268321662183574,1.451677202099811,1.0376237567414994,0.0
-0.4180378085359672,0.1117368258848318,0.4479435115073212,0.0
0.22348295938722,0.8427277729091549,0.4428981190347293,0.0
-0.9458596507321324,-0.2087794284257473,0.3987509348995495,0.0
-0.0507502219055927,0.2158495640367473,0.3110872406882662,0.0
-0.0411982796358435,0.6159444369347421,0.8093197473567153,0.0
-0.3185127326285752,0.9012322118706552,0.56241085322925,0.0
0.098999582710483,0.933944371289988,0.2420284312196645,0.0
-0.5221847919932413,1.550442760346648,0.6525972436768305,0.0
-0.051982730585561,0.9440096511113212,-0.006457148055487,0.0
-0.1564378412128237,1.0509532492129858,0.6365150551704436,0.0
-0.2756830559996989,1.4774694816419756,0.6570119620903474,0.0
-0.5754907924018402,-0.2458951477669134,-0.2599881198032292,0.0
0.928786051498736,0.9326862113123208,0.3214933626629863,0.0
-0.2445622118305133,0.7848524139364904,-0.0074031591440968,0.0
-0.532661115772965,0.3514163016303283,0.3943362164860325,0.0
-0.8087430600857299,1.3352974041656474,0.5116415914737935,0.0
-0.2528816454202955,0.5115171587884094,-0.0215933254732627,0.0
-0.3733593688871389,0.6423657964657411,0.6090807336007243,0.0
-0.1974187548217496,0.2123896240981638,0.0105710515395109,0.0
-0.6352674633802722,0.6703598559688245,0.1303991227635691,0.0
-0.5212604104832615,0.2847338228139965,0.0670163798266329,0.0
-0.3160477152686399,0.9553330909103204,0.5529507423431398,0.0
-0.1699954366924678,0.1988644043382472,-0.2647181752462841,0.0
-0.3095770446988095,0.8965141119544044,0.1628788368058789,0.0
-0.5970596943012701,0.3416655618034123,0.1650861960126374,0.0
-0.2584279344801496,0.9949651302068202,0.3801460501568681,0.0
-0.381678802476921,0.9688583106702372,0.5955212413306348,0.0
-0.5107840867035376,1.110086768163319,0.5062808619716654,0.0
-0.4963021097139227,0.1293510655721649,-0.172955099651019,0.0
-0.5064703063236492,0.6423657964657411,0.1609868146286567,0.0
0.0124158479427517,0.7263479749749902,0.1739156328396739,0.0
-0.6284886656404547,0.705902875337908,0.1534187259197688,0.0
-0.0880336094746161,0.565618037828076,0.2984737595067865,0.0
-0.2054300612415393,0.5508346580904934,0.1641401849240276,0.0
-0.6922709898287773,0.624751556778408,-0.3356690068921077,0.0
-0.1829367778321283,0.0862590863370816,-0.1149330862162122,0.0
-0.1471940261130657,0.8417841529259061,0.4186171677603809,0.0
-0.1308632861034938,0.8301461731324884,0.2095487171773533,0.0
0.2567606937463473,0.9424369511392382,0.4296539637941758,0.0
-0.1314795404434773,0.3089534023840794,0.1657168700717124,0.0
0.0281303336123399,1.0050304100281535,0.7005284721664534,0.0
-0.1841692865120966,0.3954519008486618,0.2905903337683611,0.0
-0.2528816454202955,0.4838376392797431,0.022553858661917,0.0
-0.1499671706429922,0.7810779340034898,0.3602798172960366,0.0
-0.3749000047370983,0.4284786002624105,-0.0222239995323363,0.0
-0.2322371250308362,1.0585022090789855,0.7317468380906147,0.0
-0.1231601068536951,1.028306369614986,1.1013218367079711,0.0
0.0614080679714673,1.452306282088643,0.6175948333982233,0.0
0.1054702532803133,0.6700453159744073,0.5964672524192446,0.0
-0.3406978888679939,0.7936595337801563,0.5888991637103568,0.0
-0.2279233446509503,0.3671433013511624,-0.4409915747574637,0.0
0.2194773061773251,0.9477841310443204,0.1922051805528192,0.0
-0.4735006991345155,0.4863539592350764,0.1590947924514357,0.0
-0.6044547463810829,0.6348168365997412,-0.1070496604777874,0.0
0.4807691463304774,1.6058017993639808,0.9638348918298432,0.0
-0.6657720532094766,1.2554042455838137,0.3054111741566008,0.0
-0.7397225740075386,0.5338494983919934,0.4277619416169535,0.0
0.2321105201469933,1.336870104137733,0.5125876025624047,0.0
-0.3668886983173073,0.8446150128756552,-0.1051576383005655,0.0
-0.6081522724209891,0.9625675107819044,0.703681842461823,0.0
-0.4183459357059595,1.2016179065385666,0.3527117285871488,0.0
0.0013232698230417,0.8354933530375722,0.570924953026749,0.0
0.0882151317607654,0.9474695910499048,-0.0168632700302069,0.0
-0.470727554604589,-0.0917705505027488,-0.0266387179458545,0.0
0.7543860732833066,0.464965239614744,0.3199166775153014,0.0
0.3587507870136746,0.5470601781574929,0.1395438966201418,0.0
-0.0498258403956168,0.9068939317701546,0.7478290265970015,0.0
-0.2981763394091085,1.0144666098606536,0.4075803717265859,0.0
-0.2655148593899648,1.2679858453604866,0.8288706431880092,0.0
-0.5871996248615285,0.7191135551034075,0.3117179147473399,0.0
-1.0447684722995458,1.069196568889152,0.7818854257869975,0.0
0.3134560930248627,0.7213153350643235,-0.1360606671951908,0.0
-0.507394687833629,0.6055646171189917,-0.1537195408492624,0.0
0.5349995282490562,0.1019860860579157,0.1972505730254111,0.0
-0.2054300612415393,0.3095824823729123,0.055979583792838,0.0
0.0309034781422665,0.7288642949303235,0.4529889039799131,0.0
-0.5554625263523723,-0.2449515277836634,-0.3772934947909913,0.0
-0.4485423983651678,1.0949888484313195,0.3416749325533538,0.0
-0.0840279562647213,0.8166209533725731,0.4687557554567624,0.0
-0.1890993212319674,-0.230482688040497,-0.4141879272468194,0.0
-0.4155727911760317,0.7238316550196568,0.1452199631518073,0.0
-0.0633834358752621,0.8074992935344888,0.2959510632704906,0.0
-0.3450116692478812,1.5237068608212292,0.4485741855663947,0.0
-0.2889325243093505,0.7099918952653244,-0.4536050559389435,0.0
-0.078789794374858,0.4489236998994941,-0.2032274544865704,0.0
0.2690857805460243,0.5357367383584937,0.2205855132111483,0.0
-0.3785975307770008,0.1608050650138305,0.545382653634252,0.0
-0.4910639478240544,1.1868345268009894,0.756658463424038,0.0
2.09812866161809,-2.114577254596301,-2.8088573295507477,0.0
-0.57641517391182,-1.6918355021003064,2.357545728125974,0.0
-1.20591898220532,-1.887479378627472,2.357545728125974,0.0
1.2501626898003129,-2.25014399218989,-2.8088573295507477,0.0
-1.1667868316163386,-1.437058106622814,2.357545728125974,0.0
-1.6949168009825089,-1.6701322424855671,0.7026569971158276,0.0
0.574747933178015,-1.9783814370138932,-2.8088573295507477,0.0
1.321648193238441,-0.5009870832388262,0.4533042410094505,0.0
2.1902586854456776,-1.02752703389232,-2.8088573295507477,0.0
0.4887804527502671,-1.284506209330733,2.357545728125974,0.0
1.2686503199998291,-0.0329515715468329,0.5485360239296216,0.0
1.3016199271889652,-1.380126367633398,-1.4923252312338005,0.0
0.7072426162745421,-1.0385359336969036,2.357545728125974,0.0
1.954541400401853,-1.6773666623571513,-2.8088573295507477,0.0
1.8503944169445832,-0.9183816558297382,-2.8088573295507477,0.0
0.5618065920383533,-2.3567730502971425,-2.8088573295507477,0.0
-0.3450116692478812,-2.572547486466961,-2.8088573295507477,0.0
0.2915790639554352,-1.6220076233398188,2.357545728125974,0.0
1.4982050616438136,-2.192897713206049,-2.8088573295507477,0.0
-0.3940038892765968,-1.8258295397218096,1.913551190537888,0.0
0.0675706113713064,-2.557764106729384,-2.8088573295507477,0.0
-0.614622942990809,-2.3542567303418025,-2.7968745224283467,0.0
0.5692016441181594,-2.2598947320168006,-2.8088573295507477,0.0
0.5414701988188866,-1.0819424529264028,2.357545728125974,0.0
1.905549180373138,-1.0960967526751526,1.167227275881209,0.0
0.5433189618388383,-1.093265892725402,2.357545728125974,0.0
0.0512398713617345,-2.721639443820464,0.2631560121986432,0.0
2.7103773483920395,-1.892826558532561,-2.8088573295507477,0.0
0.5254475859793071,-0.6415864607430751,2.357545728125974,0.0
0.2228667050472365,-2.721639443820464,-1.2119906119754127,0.0
1.2658771754699012,-2.207052012954808,-2.8088573295507477,0.0
0.1704850861486083,-2.721639443820464,-2.8031812630190838,0.0
1.5650686575320605,0.2196240439697465,2.354471192087979,0.0
-0.7856335223363379,-1.7431055211902264,2.357545728125974,0.0
0.2000652944678344,0.7046447153602405,2.357545728125974,0.0
2.229390836034646,-0.8362867172869894,-1.0240497423713653,0.0
-0.298792593749092,-1.7994081801908133,2.357545728125974,0.0
-0.5024646531137581,-1.1986367908549846,2.357545728125974,0.0
1.590951339811383,-0.0140791718818331,1.3986846555613508,0.0
0.6336002226464722,0.0727338665771663,0.1061181714892195,0.0
-0.3077282816788578,-1.2074439106986503,2.236456308783769,0.0
-0.2895487786493352,-0.4276992645397446,2.357545728125974,0.0
2.714999255941926,-2.721639443820464,-2.8088573295507477,0.0
2.899259303597092,-0.0892542305474155,-2.0176767224424355,0.0
0.8400454265410616,-0.7381502390289907,2.357545728125974,0.0
2.279923691913331,-0.0474204112899995,2.357545728125974,0.0
1.3339732800381163,1.05818766908457,2.357545728125974,0.0
3.346582922632877,-1.1542866516422354,-2.8088573295507477,0.0
-1.701695598722326,-1.8604289391076445,-0.5589276238042996,0.0
0.3217755266146436,-2.4473605686891413,-2.800973903812324,0.0
-1.185582588985855,-1.8409274594538088,-1.7937874314711617,0.0
1.309631233608755,-1.5383399848249817,-2.8088573295507477,0.0
0.1929783695580193,-1.0155745141044867,2.357545728125974,0.0
-0.0485933317156497,-2.721639443820464,-2.8088573295507477,0.0
0.7084751249545098,-0.3594440857513284,0.5434906314570297,0.0
0.7026207087246632,-0.9680789749475712,2.357545728125974,0.0
-0.8984080665533839,-1.9522746174773065,2.357545728125974,0.0
1.1198248968937292,-0.1886488687830809,2.357545728125974,0.0
-0.3742837503971133,-2.721639443820464,-2.8088573295507477,0.0
-0.4054045945662989,-1.67422126241298,-1.55823067040703,0.0
0.2213260691972771,-0.514197763004327,2.357545728125974,0.0
0.4111324059123027,-1.344268808269899,2.135942630618853,0.0
0.3707677466433605,-1.7761322206039751,1.913630024795267,0.0
-0.3175883511185994,0.2746685429926633,2.357545728125974,0.0
2.06916470763885,-2.6401735852665444,-2.8088573295507477,0.0
2.9627335006154305,-2.1296751743283004,-1.8603235447034716,0.0
-1.701695598722326,-0.3185538864771625,2.357545728125974,0.0
1.4858799748441367,-1.7324111613800612,-2.8088573295507477,0.0
0.6095663033871017,-1.134785171988402,0.0572409319109866,0.0
0.768868050272927,-1.3260254885937328,0.5021814805876834,0.0
0.4622815161309613,-1.361883047957232,0.1414359187973627,0.0
-0.0143912158465452,-2.2992122313188923,-1.7903187241462573,0.0
0.96945883793767,-2.721639443820464,-2.8088573295507477,0.0
3.346582922632877,-2.721639443820464,-2.8088573295507477,0.0
-1.701695598722326,-0.3198120464548285,2.0548221797704604,0.0
-0.4630243753547879,-0.080447110703749,-1.9971798155225249,0.0
0.4006560821325763,-2.657787824953884,0.7519284079809823,0.0
-0.7227755796579819,-2.721639443820464,-0.2889991265206326,0.0
-1.6986143270224023,-0.6947437197994917,2.357545728125974,0.0
3.346582922632877,0.7323242348689069,1.9719673752596096,0.0
-1.701695598722326,0.6351313765941583,2.357545728125974,0.0
0.6092581762171093,-0.6252303810334081,0.8701797940573557,0.0
1.7613456648169163,-2.71692134390422,-2.7984512075760213,0.0
-0.2938625590292213,-0.1269990298774151,2.3560478772356666,0.0
-0.4242003519358062,0.1274638256056646,2.353525180999377,0.0
-0.4704194274345914,1.2727039452767308,2.3453264182314104,0.0
1.886137168663646,-1.5704230642554762,-0.4116652310105235,0.0
0.7066263619345582,-1.291111549213484,2.357545728125974,0.0
0.7100157608044694,-2.641117205249799,-0.4747326369179221,0.0
-1.0068688303905415,-0.4789692836296608,2.357545728125974,0.0
0.6074094131971587,-0.3037705067395799,0.6059273633053547,0.0
-0.1589028585727591,-2.116464494562809,-2.072230028552331,0.0
-0.1271657600635901,-0.8020018578955734,2.357545728125974,0.0
0.2817189945156937,-2.672885744685884,-1.5762048810906375,0.0
1.7037258840284264,-1.4376871866116483,-2.8088573295507477,0.0
1.621147802470591,-2.1240134544288023,-2.8088573295507477,0.0
0.7969076227421921,-2.721639443820464,-1.0391859197891409,0.0
1.4495209687850892,-2.3822507898448846,2.357545728125974,0.0
1.1469400878530187,0.2048406642321639,1.0489758898048305,0.0
0.6847493328651321,-0.2823817871192461,2.357545728125974,0.0
0.8175521431316511,0.2362946636738308,2.357545728125974,0.0
-0.5006158900937986,-2.406470369414964,-0.0844242286085082,0.0
1.871347064504033,-1.235123430207317,-2.8088573295507477,0.0
0.6560935060558832,-2.721639443820464,-2.461986597060051,0.0
-0.0871092279646402,0.2548525233444128,2.357545728125974,0.0
1.1404694172831884,-1.2153074105590678,-2.445589071524131,0.0
1.0162941677764423,-2.349224090431136,-1.274742680853274,0.0
1.3709485404371489,-0.0908269305194988,2.355732540206137,0.0
0.5442433433488143,-0.3962452650980777,2.357545728125974,0.0
2.421662190109607,-2.721639443820464,-2.8088573295507477,0.0
-0.8774554189939234,0.4659088595979941,2.357545728125974,0.0
2.355414848561342,-2.721639443820464,-2.8088573295507477,0.0
-0.5520731274824509,-1.2895388492413995,2.357545728125974,0.0
0.1569274906689642,-1.7302093814191442,-0.5929840229942943,0.0
0.7611648710231289,-0.9158653358744048,1.9593538940781363,0.0
1.0837740180046742,-0.7290285791909076,-1.646209701647852,0.0
-0.130247031763509,-0.6878238399223248,2.357545728125974,0.0
-0.216522639361248,-0.6274321609943255,2.357545728125974,0.0
0.7392878419537023,-0.851070097024572,2.355732540206137,0.0
-0.4996915085838316,-1.1001857726025688,2.357545728125974,0.0
2.171771055246158,-1.1536575716534012,-2.672001058731694,0.0
0.4339338164917049,-1.00865463422732,2.357545728125974,0.0
2.128633251447285,-0.5060197231494928,1.713706348068808,0.0
-1.3066765667926803,-1.675479422390643,2.357545728125974,0.0
1.7619619191569014,-2.721639443820464,-2.8088573295507477,0.0
0.8739394152401734,-2.489508927940969,-2.5963201716428155,0.0
-0.0088449267866909,-0.7727496384148226,-2.339005155540629,0.0
-1.124573409327445,-0.6422155407319081,2.357545728125974,0.0
2.584353335865343,-1.1495685517259846,0.2357216906289239,0.0
1.895997238103389,-0.8164706976387389,-2.8088573295507477,0.0
-1.5519457941062558,-0.3908980851929952,2.357545728125974,0.0
0.9799351617173953,-0.4361918443889946,1.508106604810698,0.0
-0.6999741690785746,-0.2411770478506635,2.357545728125974,0.0
0.7167945585442916,-1.1454795317985682,2.357545728125974,0.0
0.5846080026177554,-2.721639443820464,1.6339260795959527,0.0
1.3971393498864622,-0.8454083771250724,-1.4119142887018663,0.0
0.8292609755913444,-2.721639443820464,-2.8088573295507477,0.0
0.3248567983145638,-2.721639443820464,2.037872814432847,0.0
-0.3813706753069285,0.7131372952094907,2.357545728125974,0.0
0.5812186037478452,-2.1293606343338918,-2.8088573295507477,0.0
0.5846080026177554,-0.5472244624180758,2.357545728125974,0.0
0.2059197106976798,-2.615010385713212,-2.8088573295507477,0.0
0.1877402076681562,-1.438001726606064,2.357545728125974,0.0
0.3103748213249425,1.0496950892353198,2.357545728125974,0.0
0.5753641875179986,-0.2374025679176636,2.357545728125974,0.0
0.5642716093982887,-2.695218084289468,-1.4970552866768547,0.0
0.4040454810024877,-1.259657549771817,2.357545728125974,0.0
1.486804356354113,0.3369474618871615,-0.0569110727814059,0.0
1.5875619409414714,0.3844430010440784,-0.4274320824873728,0.0
1.8112622663556093,-1.3338889884541487,-2.8088573295507477,0.0
0.7146376683543483,-1.035390533752736,2.357545728125974,0.0
0.5069599557797909,1.0141520698662363,2.357545728125974,0.0
1.9915166608008843,-1.5795447240935685,-2.8088573295507477,0.0
1.0739139485649325,0.439172960072578,0.8667110867324486,0.0
-1.038297801729713,1.5595644201847272,2.357545728125974,0.0
1.0215323296663057,-1.4864408857462297,2.357545728125974,0.0
0.6114150664070536,-2.721639443820464,-2.8088573295507477,0.0
0.9155365831890834,-1.4483815464218142,0.151842040772084,0.0
0.8412779352210293,-1.4159839269968988,-0.2300311019972149,0.0
-0.8611246789843489,-1.4641085461426462,2.357545728125974,0.0
0.991335867007096,-0.6110760812846584,1.2958847839322956,0.0
1.2547845973501923,-0.2893016669964131,1.2791719213668329,0.0
0.0114914664327757,-1.712280601737395,-1.5632760628796218,0.0
0.5688935169481684,-1.7588325209110578,-0.1382680264019498,0.0
0.3285543243544663,-0.923728835734822,1.553830474093555,0.0
0.2518306590264765,-1.4578177462543147,0.8853159714751313,0.0
0.8751719239201411,-1.326654568582566,0.8972987785975373,0.0
0.4890885799202596,-1.2495922699504838,0.3063571852452106,0.0
0.6030956328172714,-1.4785773858858142,1.388593870616167,0.0
0.6641048124756729,-1.203040350776818,-0.1133564010685273,0.0
1.1540270127628325,-1.4949334655954771,-0.0575417468404796,0.0
1.251087071310289,-1.2319780302631504,-0.0764619686126985,0.0
1.25909837773008,-1.3128148088282334,0.6399837624953507,0.0
0.5100412274797098,-1.560043244439734,0.7238634123521905,0.0
0.6785867894652928,-1.739016501262814,0.1597254665105093,0.0
0.8249471952114573,-1.225372690380401,1.7001468557987196,0.0
0.5211338055994198,-1.101758472574652,0.997891291019838,0.0
0.5781373320479251,-1.1124528323848195,0.3757313317433497,0.0
0.2043790748477204,-1.092322272742153,1.0338397123870549,0.0
0.7195677030742189,-1.459390446226402,-0.271970926925635,0.0
0.8831832303399311,-1.6606960426530657,0.5608341680815652,0.0
0.4231493655419873,-1.6405654830103995,1.979850800998034,0.0
0.2370405548668641,-1.2168801105311509,-0.1925059954823127,0.0
0.6357571128364151,-0.6956873397827404,0.433438008148619,0.0
0.9753132541675168,-1.1162273123178188,-0.271655589896098,0.0
0.6172694826369003,-0.9727970748638208,-0.5232945394666189,0.0
0.8859563748698583,-1.2876516092749002,0.4504662077436171,0.0
0.9854814507772508,-0.7475864388614909,-0.5734331271630004,0.0
0.716178304204308,-2.141942234110551,-0.7251102383702946,0.0
0.7180270672242595,-1.7990936401963906,-0.7137581053069623,0.0
1.199629833921638,-1.661954202630729,-1.012066935248959,0.0
0.1621656525588274,-1.3952242873653975,1.966921982787018,0.0
0.6949175294748651,-1.5855209839874762,-0.3829695613226569,0.0
0.4893967070902507,-1.0699899331385692,-0.4766246590951444,0.0
0.5793698407278934,-0.7727496384148226,-1.3595683417987263,0.0
0.7124807781644049,-1.6874319421784714,-0.3454444548077545,0.0
1.2039436143015252,-1.7443636811678895,1.7736203836808384,0.0
0.6483903268060845,-0.6843638999837413,1.6039690617899445,0.0
0.1489161842491745,-0.6761858601289084,1.941064346364986,0.0
0.8283365940813685,-1.3483578281973156,2.017375907512937,0.0
0.9106065484692124,-0.6796458000674919,-0.174216447769167,0.0
1.132149983693406,-1.2889097692525662,0.7749480111371833,0.0
0.0851338600608452,-1.3206783086886489,1.0335243753575185,0.0
0.5075762101197745,-0.7998000779346559,1.9435870426012756,0.0
-0.1213113438337433,-1.4584468262431474,0.9635195548003056,0.0
0.4628977704709461,-0.915236255885572,2.14224937120959,0.0
1.3111718694587144,-1.4722865859974843,-1.7171605332936812,0.0
0.4025048451525282,-0.6777585601009914,1.0164961757625206,0.0
0.3661458390934807,-0.472993023735744,1.2060137305142566,0.0
1.0218404568362969,-1.72926576143589,-2.64362072607336,0.0
-0.101283077784269,-1.0124291141603206,2.357545728125974,0.0
0.8009132759520872,-0.7362629990624905,-1.6585078457997957,0.0
-0.2239176914410554,-1.3351471484318158,2.357545728125974,0.0
0.6104906848970776,-1.2426723900733168,-2.156425015438706,0.0
1.472938633704475,-1.445236146477648,-2.4370749717266347,0.0
-0.0029905105568441,-1.136043331966068,2.0548221797704604,0.0
1.574928726971802,-1.997882916667728,-1.2154593193003198,0.0
-0.0014498747068847,-1.3423815683033988,2.357545728125974,0.0
0.5211338055994198,-1.0080255542384868,2.3491104625858577,0.0
1.058507590065337,-0.2389752678897469,2.0643611249139515,0.0
1.581091270371641,-1.2854498293139829,-1.225234767215966,0.0
-0.527114826713112,-0.2716874273090798,2.357545728125974,0.0
0.9953415202169924,-2.365580170140799,-0.8540830834509255,0.0
0.089755767610725,-0.8617644568347382,2.357545728125974,0.0
1.729916693477741,-1.5443162447189025,-2.24282736153184,0.0
-1.3032871679227716,-0.4481443641768269,2.357545728125974,0.0
1.2597146320700636,-2.6807492445463,-2.0381736293623325,0.0
0.776879356692717,-2.206108392971553,-1.2952395877731788,0.0
1.8026347055958347,-1.110880132412735,-2.8088573295507477,0.0
0.8329585016312474,-1.960138117337722,-1.356730308532893,0.0
1.946838221152056,-0.8737169766225718,-1.4024541778157562,0.0
1.5964976288712374,-1.613200503496149,-1.503046690238058,0.0
-0.2947869405391972,-1.7575743609333945,2.357545728125974,0.0
1.5493541718624722,-1.2867079892916504,-2.10218704635834,0.0
0.3347168677543054,-1.6974972219998177,1.1438923356954664,0.0
0.7805768827326202,-1.2810462693921507,-2.269315672012957,0.0
1.1497132323829464,-1.824571379744146,-2.6395213446893826,0.0
1.376186702327011,-0.8944766162540713,-1.2741120067942002,0.0
0.4037373538324965,-1.2260017703692336,2.357545728125974,0.0
0.4505726836712691,-1.203040350776818,2.230859076509484,0.0
0.8708581435402541,-1.6452835829266437,-0.0629024763426076,0.0
0.1553868548190048,-1.1813370911620673,1.6610450641361292,0.0
0.5152793893695731,-0.4962689833225767,0.1338678300884749,0.0
1.1438588161530996,-1.4663103261035633,-0.6708722692899312,0.0
0.8930432997796727,-1.3175329087444827,0.5318231613641611,0.0
0.5762885690279744,-1.25273766989465,0.5649335494655459,0.0
0.8311097386112959,-1.715740541675976,0.0480961580544126,0.0
-0.501848398773776,-1.1467376917762355,1.7329419068705736,0.0
-0.0344194818960209,-1.3974260673263157,1.6985701706510323,0.0
1.5262446341130778,-2.508695867600381,-2.072860702611403,0.0
2.455248051638736,-1.0385359336969036,-0.0862374165283462,0.0
0.5975493437574171,-1.2162510305423175,2.129635890028103,0.0
0.3778546715531742,-1.0391650136857369,1.984580856441096,0.0
0.8733231609001895,-1.6339601431276471,0.857881649905412,0.0
0.3528963707838291,-1.2697228295931502,-2.3043180822915583,0.0
-0.324059021688431,-0.6915983198553239,2.357545728125974,0.0
-0.2399403042806349,-1.733669321357725,1.2879225239364926,0.0
-0.8056617883858058,0.1743302847737471,2.357545728125974,0.0
2.686959683472663,-0.7519899987833232,-1.3888946855456668,0.0
0.7482235298834681,-1.2731827695317337,-0.8531370723623143,0.0
0.9891789768171532,-0.706381699592908,0.6671027470355312,0.0
0.4249981285619392,-1.05866649333957,1.3261571387678472,0.0
0.1575437450089477,-0.8381739572534898,1.0187035349692792,0.0
0.813854617091748,-1.2697228295931502,1.271919169687481,0.0
0.554103412788556,-1.2684646696154829,0.2934283670341946,0.0
0.3760059085332223,-1.0517466134624032,0.5576807977861956,0.0
0.7750305936727655,-0.992298554517654,-1.2920862174778094,0.0
0.11132466951016,-1.894399258504647,1.5736967069543926,0.0
-0.5175628844433551,-1.839354759481724,-0.0559650616927948,0.0
0.7593161080031774,-1.4065477271643985,-2.8088573295507477,0.0
0.8905782824197372,-1.6292420432113894,-0.3366150179807187,0.0
0.9152284560190912,-1.2816753493809836,0.1073795196073681,0.0
0.8659281088203833,-0.8796932365164886,-0.0764619686126985,0.0
0.8169358887916672,-2.022417036232229,-0.2905758116683176,0.0
0.5115818633296694,-0.9957584944562377,0.5961519153897085,0.0
0.9454249186783,-1.597158963780895,0.505965524942128,0.0
0.9315591960286632,-1.4795210058690684,-0.6235717148593831,0.0
0.5451677248587903,-1.3804409076278152,1.037939093771035,0.0
0.6644129396456641,-1.6009334437138985,-0.0055111369668758,0.0
0.6148044652769649,-1.8031826601238163,0.4990281102923137,0.0
0.4644384063209056,-1.7009571619383983,0.9783403951885438,0.0
0.5673528810982088,-1.02752703389232,0.6409297735839605,0.0
1.066827023655119,-1.386102627527315,0.8768018716776322,0.0
0.5941599448875059,-0.7941383580351563,1.0508679119820528,0.0
1.2057923773214771,-0.6095033813125753,-0.2070114988410143,0.0
0.8046108019919903,-1.3603103479851488,-0.3221095146220169,0.0
0.2949684628253466,-1.664785062580478,1.0439304973322383,0.0
0.0879070045907731,-1.4229038068740645,1.3551681454852538,0.0
0.8335747559712313,-1.276013629481484,1.0136581424966873,0.0
0.7996807672721196,-1.399942387281649,0.7238634123521905,0.0
1.0144454047564906,-1.223799990408318,-0.0146559108234485,0.0
0.5091168459697339,-2.0516692557129748,0.5980439375669308,0.0
0.6339083498164633,-1.3257109485993157,0.8162571620065296,0.0
0.9645288032177992,-0.9363104355114884,0.1739156328396739,0.0
0.4838504180303963,-1.353390468107982,-0.5106810582851392,0.0
0.7476072755434842,-1.2719246095540662,-0.9483688552824868,0.0
0.1427536408493354,-1.226630850358067,0.8676570978210596,0.0
0.6755055177653739,-0.8359721772925722,-0.881202067991106,0.0
1.0082828613566528,-0.8781205365444055,1.0767255484040856,0.0
1.030159890426079,-1.8969155784599736,1.118665373332507,0.0
0.6979988011747844,-1.295515109135316,0.5870071415331357,0.0
0.1997571672978419,-1.3562213280577324,1.4138208329791264,0.0
0.5088087187997428,-1.1807080111732349,1.254260296033416,0.0
0.5559521758085064,-1.107734732468569,1.9445330536898904,0.0
0.6366814943463911,-1.117485472295485,2.347218440408628,0.0
0.5907705460175945,-0.9897822345623208,1.1959229455690727,0.0
1.10719168292406,-1.0910641127644858,0.9017134970110544,0.0
0.9019789877094384,-1.4395744265781485,-1.1284262991481089,0.0
0.4055861168524471,-1.94724197756664,-0.484823421863106,0.0
0.4437938859314465,-1.0413667936466526,1.510313964017458,0.0
0.8357316461611748,-1.3285418085490663,-1.5642220739682369,0.0
1.142010053133148,-1.5307910249589751,-1.5096687678583347,0.0
0.222558577877244,-1.208072990687485,1.7934866165416763,0.0
0.1593925080288996,-0.9907258545455708,1.3942699371478442,0.0
0.4838504180303963,-1.3137584288114823,2.357545728125974,0.0
0.0077939403928732,-1.4782628458913916,2.168737681690694,0.0
-0.2803049635495771,-1.6037643036636475,2.357545728125974,0.0
0.4135974232722381,-0.9985893544059866,2.357545728125974,0.0
0.1923621152180357,-1.4845536457797346,2.357545728125974,0.0
-0.1592109857427502,-0.6862511399502416,2.357545728125974,0.0
0.4474914119713489,-1.102702092557902,1.9782741158503463,0.0
0.62528078905669,-1.2901679292302335,2.180089814754022,0.0
0.0561699060816053,-0.9800314947354034,2.357545728125974,0.0
0.2062278378676723,-0.6356102008491584,2.0369268033442323,0.0
1.3392114419279797,-1.0800552129599024,-1.440609958389733,0.0
0.6949175294748651,-1.9032063783483035,0.5340305205709209,0.0
0.1168709585700143,-1.515064025238143,1.9142606988543391,0.0
0.925396652628825,-0.7674024585097402,2.135311956559768,0.0
1.138928781433229,-1.373835567745065,-0.6863237837372443,0.0
0.6490065811460681,-0.5686131820384095,-0.0884447757351046,0.0
0.3491988447439254,-1.677052122362729,2.0624691027367343,0.0
0.955284988118041,-1.5219839051153183,-0.7642120300328825,0.0
0.5565684301484912,-1.6588088026865575,-0.3044506409679453,0.0
0.9793189073774116,-1.6305002031890663,0.1572027702742134,0.0
0.5701260256281353,-1.5462034846853976,1.4201275735698762,0.0
0.3202348907646841,0.0066804677496662,-2.374007565819229,0.0
-1.0213508073801565,-1.4990224855229028,1.7924617711956825,0.0
2.290400015693055,-0.2581622075491633,-0.0802460129671431,0.0
2.024486267990021,-2.5807255263218,-2.8088573295507477,0.0
-0.8993324480633509,0.3583361815074952,2.357545728125974,0.0
0.6157288467869408,-2.721639443820464,-2.8031812630190838,0.0
0.3707677466433605,-0.3106903866167455,-2.556587705921153,0.0
-0.1499671706429922,-2.7018234241722205,1.5683359774522585,0.0
1.8870615501736216,-1.5251293050594763,-2.8088573295507477,0.0
0.7697924317829028,-1.6188622233956471,2.357545728125974,0.0
2.0700890891488264,-1.4735447459751474,-2.8088573295507477,0.0
1.5518191892224076,2.132027210023056,2.357545728125974,0.0
-1.2777126128134375,-2.717550423893052,0.823746416458033,0.0
-1.701695598722326,-2.721639443820464,-2.8088573295507477,0.0
1.5305584144929651,0.926709951418404,2.357545728125974,0.0
1.2612552679200228,0.4177842404522443,-0.0843453943511239,0.0
0.6360652400064076,-2.291663271452886,0.1375730401855351,0.0
